aX,aY,aZ,gX,gY,gZ
0.0223,0.0066,-1.0051,0.4883,-0.3662,0.0610
0.0210,0.0066,-1.0045,0.4883,-0.3662,0.0610
0.0211,0.0067,-1.0038,0.4272,-0.4272,0.0610
0.0210,0.0066,-1.0067,0.4272,-0.4272,0.0000
0.0206,0.0071,-1.0040,0.3052,-0.4272,0.0610
0.0204,0.0072,-1.0049,0.3052,-0.4272,0.0610
0.0210,0.0070,-1.0066,0.2441,-0.3662,0.0610
0.0226,0.0070,-1.0038,0.2441,-0.3662,0.0610
0.0222,0.0070,-1.0062,0.2441,-0.3662,0.0000
0.0220,0.0068,-1.0051,0.2441,-0.3662,0.0610
0.0223,0.0072,-1.0031,0.2441,-0.3662,0.0610
0.0217,0.0078,-1.0056,0.4272,-0.3662,0.0610
0.0215,0.0076,-1.0042,0.4272,-0.3662,0.0610
0.0217,0.0071,-1.0050,0.3662,-0.3662,0.0610
0.0219,0.0068,-1.0046,0.3662,-0.3662,0.0610
0.0220,0.0072,-1.0046,0.3052,-0.4272,0.0610
0.0212,0.0070,-1.0070,0.2441,-0.4272,0.0610
0.0212,0.0074,-1.0055,0.3052,-0.3662,0.0610
0.0211,0.0082,-1.0051,0.1831,-0.3662,0.0610
0.0217,0.0084,-1.0060,0.3052,-0.3662,0.0610
0.0219,0.0079,-1.0039,0.2441,-0.3052,0.0610
0.0222,0.0082,-1.0046,0.2441,-0.3662,0.0610
0.0237,0.0073,-1.0049,0.3662,-0.3662,0.0610
0.0240,0.0072,-1.0045,0.3662,-0.3662,0.0610
0.0229,0.0071,-1.0055,0.4272,-0.3662,0.0610
0.0223,0.0076,-1.0039,0.4883,-0.3662,0.0610
0.0217,0.0079,-1.0062,0.4272,-0.4272,0.0610
0.0220,0.0084,-1.0067,0.4272,-0.3662,0.0610
0.0216,0.0084,-1.0040,0.3662,-0.4272,0.0610
0.0212,0.0073,-1.0048,0.4272,-0.3662,0.0610
0.0219,0.0063,-1.0051,0.4272,-0.3662,0.0610
0.0219,0.0063,-1.0050,0.4272,-0.3662,0.0000
0.0214,0.0070,-1.0056,0.4883,-0.3662,0.0610
0.0223,0.0074,-1.0040,0.5493,-0.3662,0.0610
0.0228,0.0079,-1.0066,0.4883,-0.3662,0.0610
0.0232,0.0082,-1.0060,0.5493,-0.3662,0.0610
0.0229,0.0078,-1.0032,0.6714,-0.3662,0.0610
0.0215,0.0074,-1.0057,0.7324,-0.3662,0.0610
0.0208,0.0074,-1.0049,0.7935,-0.3662,0.0610
0.0208,0.0071,-1.0050,0.8545,-0.3662,0.0610
0.0208,0.0063,-1.0065,0.9155,-0.3052,0.0610
0.0219,0.0067,-1.0057,1.0376,-0.3052,0.0610
0.0225,0.0063,-1.0060,0.9766,-0.3662,0.0610
0.0220,0.0057,-1.0054,0.9155,-0.3662,0.0610
0.0214,0.0071,-1.0046,0.6104,-0.3662,0.0610
0.0222,0.0066,-1.0061,0.6104,-0.3662,0.0610
0.0223,0.0062,-1.0050,0.5493,-0.3662,0.0610
0.0222,0.0061,-1.0052,0.4883,-0.3662,0.0610
0.0221,0.0063,-1.0055,0.4883,-0.3662,0.0610
0.0220,0.0060,-1.0042,0.4883,-0.4272,0.0610
0.0228,0.0059,-1.0054,0.4272,-0.3662,0.0610
0.0225,0.0060,-1.0054,0.4883,-0.3662,0.0610
0.0221,0.0065,-1.0042,0.4883,-0.3662,0.0610
0.0217,0.0062,-1.0056,0.4272,-0.4272,0.0610
0.0228,0.0056,-1.0046,0.4272,-0.4272,0.0610
0.0228,0.0055,-1.0055,0.3662,-0.4272,0.0000
0.0219,0.0051,-1.0055,0.3662,-0.4272,0.0610
0.0209,0.0056,-1.0044,0.3052,-0.4272,0.0610
0.0206,0.0059,-1.0059,0.3662,-0.4272,0.0000
0.0225,0.0061,-1.0042,0.3662,-0.4272,0.0610
0.0217,0.0063,-1.0045,0.3052,-0.4272,0.0000
0.0216,0.0060,-1.0059,0.3052,-0.4272,0.0610
0.0226,0.0055,-1.0054,0.3662,-0.3662,0.0610
0.0221,0.0063,-1.0057,0.4883,-0.3662,0.0610
0.0229,0.0065,-1.0052,0.4883,-0.3662,0.0000
0.0226,0.0063,-1.0042,0.3662,-0.3662,0.0610
0.0219,0.0056,-1.0054,0.3662,-0.4272,0.0610
0.0217,0.0067,-1.0044,0.5493,-0.3662,0.0610
0.0216,0.0062,-1.0046,0.4883,-0.3662,0.0610
0.0216,0.0057,-1.0057,0.4883,-0.3662,0.0610
0.0214,0.0056,-1.0037,0.4272,-0.3662,0.0610
0.0205,0.0048,-1.0046,0.4272,-0.3052,0.1221
0.0201,0.0049,-1.0052,0.4883,-0.3052,0.0610
0.0194,0.0051,-1.0060,0.4883,-0.2441,0.0610
0.0205,0.0051,-1.0051,0.5493,-0.1831,0.0610
0.0206,0.0059,-1.0034,0.4883,-0.1831,0.0000
0.0217,0.0062,-1.0046,0.5493,-0.1831,0.0610
0.0228,0.0063,-1.0070,0.7935,-0.1831,0.0610
0.0250,0.0050,-1.0033,0.9155,-0.1831,0.0610
0.0256,0.0052,-1.0048,1.1597,-0.2441,0.0610
0.0256,0.0050,-1.0055,0.9155,-0.2441,0.0610
0.0266,0.0048,-1.0040,0.1831,-0.4272,0.1221
0.0254,0.0051,-1.0050,0.7324,-0.4272,0.1221
0.0232,0.0055,-1.0033,0.4272,-0.5493,0.1221
0.0208,0.0055,-1.0055,0.3052,-0.5493,0.1221
0.0168,0.0057,-1.0039,0.3052,-0.4272,0.1221
0.0165,0.0062,-1.0055,0.2441,-0.3662,0.1221
0.0172,0.0051,-1.0077,0.1831,-0.3052,0.1221
0.0193,0.0033,-1.0066,0.2441,-0.3052,0.0610
0.0237,0.0038,-1.0049,0.4883,-0.3052,0.0610
0.0247,0.0050,-1.0050,0.7935,-0.2441,0.0610
0.0253,0.0065,-1.0039,0.7935,-0.2441,0.1221
0.0247,0.0070,-1.0037,0.4883,-0.3052,0.1221
0.0231,0.0066,-1.0046,0.6104,-0.3662,0.1221
0.0227,0.0055,-1.0048,0.6714,-0.4272,0.0610
0.0221,0.0046,-1.0071,0.8545,-0.3662,0.0000
0.0223,0.0040,-1.0066,0.7324,-0.3052,0.0610
0.0225,0.0023,-1.0054,0.0610,-0.5493,0.0610
0.0227,0.0042,-1.0056,0.0610,-0.6104,0.0000
0.0236,0.0057,-1.0046,0.1831,-0.5493,0.0000
0.0238,0.0066,-1.0049,0.0000,-0.6714,0.0610
0.0229,0.0059,-1.0042,0.1831,-0.6714,0.0610
0.0215,0.0055,-1.0056,0.3052,-0.6104,0.0000
0.0201,0.0051,-1.0063,0.5493,-0.4272,0.0000
0.0209,0.0037,-1.0051,-0.0610,-0.6104,0.0610
0.0211,0.0037,-1.0062,0.0000,-0.6104,0.0610
0.0212,0.0048,-1.0060,0.1221,-0.6104,0.0000
0.0217,0.0059,-1.0050,0.3662,-0.4883,0.0000
0.0216,0.0059,-1.0054,0.1831,-0.5493,0.0610
0.0220,0.0059,-1.0055,0.2441,-0.5493,0.0610
0.0212,0.0056,-1.0049,0.3662,-0.4883,0.0000
0.0204,0.0060,-1.0046,0.3662,-0.4883,0.0610
0.0203,0.0061,-1.0042,0.3662,-0.4883,0.0610
0.0214,0.0051,-1.0061,0.3662,-0.4883,0.0610
0.0209,0.0048,-1.0066,0.3662,-0.4272,0.0610
0.0194,0.0043,-1.0051,0.3052,-0.3662,0.0610
0.0214,0.0045,-1.0060,0.2441,-0.4272,0.0610
0.0223,0.0045,-1.0057,0.1831,-0.4272,0.0610
0.0219,0.0054,-1.0052,0.1831,-0.3662,0.0610
0.0222,0.0059,-1.0046,0.3662,-0.3662,0.0610
0.0219,0.0066,-1.0034,0.4272,-0.3662,0.0000
0.0225,0.0063,-1.0049,0.4883,-0.3662,0.0000
0.0222,0.0057,-1.0050,0.4883,-0.3052,0.0610
0.0204,0.0038,-1.0055,0.4883,-0.3662,0.0610
0.0198,0.0034,-1.0057,0.3052,-0.3662,0.0610
0.0166,0.0020,-1.0055,0.1831,-0.3662,0.0610
0.0132,0.0016,-1.0065,0.1221,-0.3052,0.1221
0.0220,0.0056,-1.0093,0.1221,-0.2441,0.0610
0.0278,0.0090,-1.0043,0.3052,-0.3052,0.0000
0.0306,0.0117,-1.0011,0.3662,-0.3662,0.0610
0.0309,0.0082,-1.0018,0.3662,-0.4883,0.0610
0.0294,0.0050,-1.0054,0.3052,-0.6104,0.0610
0.0251,0.0026,-1.0065,0.1831,-0.6104,0.0000
0.0190,0.0015,-1.0045,0.0000,-0.6104,0.0000
0.0121,0.0027,-1.0071,-0.3662,-0.5493,0.0610
0.0133,0.0042,-1.0085,-0.4272,-0.4272,0.0610
0.0161,0.0062,-1.0083,-0.2441,-0.4272,0.0610
0.0187,0.0079,-1.0071,-0.0610,-0.3662,0.0000
0.0247,0.0087,-1.0031,0.3052,-0.3052,0.0610
0.0281,0.0072,-1.0033,0.4883,-0.3052,0.0610
0.0288,0.0060,-1.0037,0.5493,-0.3662,0.0610
0.0272,0.0060,-1.0037,0.5493,-0.3662,0.0610
0.0208,0.0063,-1.0049,0.3052,-0.4272,0.0610
0.0184,0.0065,-1.0061,0.3052,-0.4883,0.0610
0.0178,0.0056,-1.0071,0.3052,-0.4272,0.0610
0.0183,0.0065,-1.0062,0.2441,-0.4272,0.0000
0.0192,0.0062,-1.0039,0.1831,-0.3662,0.0000
0.0206,0.0056,-1.0044,0.1831,-0.4272,0.0000
0.0225,0.0057,-1.0061,0.1831,-0.4272,0.0610
0.0233,0.0059,-1.0042,-0.0610,-0.4272,0.0000
0.0220,0.0067,-1.0046,-0.2441,-0.4883,0.0610
0.0203,0.0071,-1.0043,-0.2441,-0.4272,0.0610
0.0195,0.0068,-1.0049,-0.1831,-0.4272,0.0610
0.0214,0.0072,-1.0055,0.0610,-0.3662,0.0610
0.0211,0.0074,-1.0038,0.3052,-0.3662,0.0610
0.0205,0.0072,-1.0042,0.4272,-0.3052,0.1221
0.0205,0.0072,-1.0054,0.6104,-0.3662,0.1221
0.0203,0.0070,-1.0057,0.5493,-0.3662,0.1221
0.0198,0.0076,-1.0057,0.4272,-0.3662,0.0610
0.0195,0.0076,-1.0044,0.1831,-0.3662,0.0610
0.0215,0.0054,-1.0049,-0.3052,-0.4272,0.0610
0.0219,0.0062,-1.0052,-0.3662,-0.4883,0.0610
0.0219,0.0070,-1.0050,0.0610,-0.4272,0.0610
0.0220,0.0077,-1.0046,0.4272,-0.3662,0.0610
0.0214,0.0096,-1.0056,0.1221,-0.4272,0.0610
0.0199,0.0090,-1.0060,0.6104,-0.3662,0.0610
0.0184,0.0076,-1.0061,0.3662,-0.4272,0.0000
0.0182,0.0072,-1.0057,0.3662,-0.4272,0.0000
0.0205,0.0055,-1.0062,0.4883,-0.3052,0.0610
0.0223,0.0052,-1.0059,0.5493,-0.3662,0.0000
0.0237,0.0051,-1.0042,0.7324,-0.3052,0.0610
0.0231,0.0059,-1.0038,0.4883,-0.3662,0.0610
0.0233,0.0092,-1.0050,0.2441,-0.4883,0.0000
0.0221,0.0088,-1.0059,0.3662,-0.4883,0.0000
0.0204,0.0082,-1.0059,0.4272,-0.4883,0.0610
0.0184,0.0070,-1.0045,0.3052,-0.4883,0.0000
0.0176,0.0057,-1.0060,0.3662,-0.4272,0.0000
0.0178,0.0051,-1.0061,0.4272,-0.3052,0.0610
0.0192,0.0057,-1.0060,0.1831,-0.3662,0.0000
0.0212,0.0074,-1.0066,0.2441,-0.3052,0.0000
0.0223,0.0083,-1.0056,0.1831,-0.3662,0.0000
0.0229,0.0090,-1.0043,0.4272,-0.3052,0.0610
0.0227,0.0087,-1.0035,0.5493,-0.3052,0.0610
0.0225,0.0078,-1.0042,0.6104,-0.3662,0.0610
0.0221,0.0070,-1.0051,0.4883,-0.3662,0.0000
0.0205,0.0060,-1.0057,0.4883,-0.3662,0.0000
0.0193,0.0055,-1.0055,0.4272,-0.3662,0.0000
0.0171,0.0066,-1.0061,0.7324,-0.3052,0.0610
0.0181,0.0068,-1.0049,0.7935,-0.2441,0.0610
0.0195,0.0068,-1.0045,0.8545,-0.2441,0.0610
0.0223,0.0072,-1.0039,1.0376,-0.2441,0.1221
0.0238,0.0074,-1.0035,0.9766,-0.2441,0.1221
0.0248,0.0077,-1.0045,0.9766,-0.3052,0.1221
0.0243,0.0074,-1.0046,0.9155,-0.3662,0.1221
0.0225,0.0062,-1.0055,0.5493,-0.4272,0.1221
0.0209,0.0060,-1.0059,0.4883,-0.4272,0.1221
0.0197,0.0060,-1.0055,0.3052,-0.4272,0.1221
0.0186,0.0055,-1.0057,-0.0610,-0.4272,0.1221
0.0188,0.0060,-1.0073,-0.3662,-0.4272,0.0610
0.0197,0.0062,-1.0065,-0.3052,-0.4272,0.0610
0.0204,0.0061,-1.0059,-0.3662,-0.4272,0.0000
0.0219,0.0061,-1.0048,-0.6714,-0.4272,0.0610
0.0233,0.0067,-1.0029,-2.2583,-0.8545,-0.0610
0.0248,0.0070,-1.0040,-3.9062,-1.1597,-0.1221
0.0239,0.0094,-1.0062,-4.6997,-1.2817,-0.2441
0.0200,0.0139,-1.0093,3.2959,0.2441,-0.9766
0.0193,0.0129,-1.0060,5.0049,0.6104,-1.0376
0.0186,0.0083,-1.0029,2.4414,0.1221,-0.4272
0.0182,0.0061,-1.0039,0.6104,-0.2441,-0.6104
0.0223,0.0092,-1.0059,0.3052,-0.4272,-0.1221
0.0245,0.0083,-1.0056,0.1831,-0.4272,-0.0610
0.0256,0.0092,-1.0052,0.6104,-0.3662,0.0000
0.0255,0.0098,-1.0046,0.9766,-0.4272,0.0610
0.0201,0.0085,-1.0056,0.5493,-0.4883,0.0000
0.0188,0.0084,-1.0071,0.6714,-0.4272,0.0000
0.0181,0.0077,-1.0062,0.4272,-0.4272,-0.0610
0.0177,0.0078,-1.0055,-0.1831,-0.4883,-0.0610
0.0209,0.0090,-1.0052,0.7935,-0.3052,0.1831
0.0222,0.0090,-1.0068,1.4038,-0.1831,0.1831
0.0234,0.0087,-1.0076,1.7090,-0.1831,0.2441
0.0195,-0.0107,-1.0034,0.4883,-0.3662,-1.0376
-0.0342,0.2817,-0.9852,-4.5776,-2.1973,-6.9580
0.0154,0.1383,-0.9883,-32.4707,-11.0474,56.6406
0.0688,-0.1771,-1.0021,-22.7661,-17.0288,33.6914
-0.0165,-0.0283,-1.0150,-37.5366,-28.0762,28.7476
-0.0145,-0.0081,-0.9994,-44.4336,-22.8882,23.0713
-0.0171,0.0048,-1.0072,-39.4287,-26.5503,21.0571
-0.0231,0.0101,-1.0137,-27.0996,-20.3247,11.9629
-0.0286,0.0265,-1.1145,-14.3433,-14.3433,6.7139
-0.0150,0.0135,-1.1520,-21.3623,9.6436,2.4414
0.0022,0.0455,-1.0485,-29.9072,22.7661,-1.5869
0.0117,0.0862,-1.0028,-26.3672,25.9399,-2.4414
0.0254,0.1040,-1.0046,-35.1563,31.0059,-1.3428
0.0171,0.1462,-1.0024,-43.6401,36.8042,0.1221
0.0474,0.1414,-0.9304,-50.3540,32.8369,2.5024
0.0477,0.1948,-1.2042,-52.7344,12.9395,-2.2583
0.0769,0.2435,-1.3198,-84.2896,44.1895,-6.2866
0.1257,0.2433,-1.3862,-40.9546,41.6870,-5.7983
0.1349,0.1283,-1.4661,2.6245,53.2227,4.7607
0.0507,0.0829,-1.2885,22.2168,67.7490,-13.4277
0.0171,0.1112,-1.1876,30.7007,66.5894,-12.6343
0.0216,0.0677,-1.1591,42.9688,58.4717,-1.6479
0.0510,0.0426,-1.2244,56.7017,57.3120,-1.9531
0.1615,0.0518,-1.2560,83.5571,65.7959,5.9814
0.1567,0.0870,-1.2126,83.3130,70.2515,5.7373
0.1753,0.0957,-1.2091,75.1343,75.1343,4.5776
0.1823,0.1478,-1.2345,63.4155,81.1768,1.3428
0.1781,0.1830,-1.1364,31.9824,92.4683,0.4883
0.1870,0.0865,-1.1013,22.8271,93.8110,-4.9438
0.2117,0.0100,-1.1196,17.0288,95.5811,-13.1226
0.2509,-0.0208,-1.1526,19.4092,104.3091,-20.8740
0.2545,0.0034,-1.1340,27.3438,109.6802,-19.9585
0.2509,0.0752,-1.0992,32.5928,112.9761,-13.5498
0.2709,0.0953,-1.0969,31.9824,114.5630,-3.6621
0.3302,-0.0093,-1.1266,36.3770,124.8779,7.2632
0.3248,0.0330,-1.0669,40.2222,125.0610,8.9722
0.3756,0.0123,-1.0863,38.0249,127.6855,8.2397
0.4242,-0.0272,-1.1311,37.7808,133.0566,3.9673
0.3879,-0.0100,-1.0190,31.1890,140.9302,-17.7002
0.4050,-0.0356,-0.9788,29.9072,135.1318,-12.3291
0.4045,0.0675,-0.9128,30.6396,133.0566,-6.2866
0.4336,0.1320,-0.8173,25.3906,133.1787,5.1880
0.5024,-0.0500,-0.6853,43.4570,120.5444,10.3760
0.5525,-0.0546,-0.7296,44.0063,116.0278,9.7656
0.5903,-0.0754,-0.8124,44.6777,117.0044,7.6904
0.6119,-0.0038,-0.6714,29.6631,120.7886,8.3618
0.6460,-0.0747,-0.6407,31.2500,116.7603,9.3994
0.6642,-0.0947,-0.6847,30.5786,116.4551,9.8877
0.6533,-0.0988,-0.6813,27.2827,118.6523,8.7280
0.6058,-0.1888,-0.5955,12.2070,113.4033,4.2725
0.5930,-0.0946,-0.4976,-12.6953,106.0791,5.6152
0.6443,-0.1333,-0.4523,-41.5039,102.6001,8.3008
0.6952,-0.2457,-0.4373,-42.2363,98.4497,-0.0610
0.7448,-0.1527,-0.3984,-9.7656,85.3882,-16.8457
0.7655,-0.1194,-0.5023,-7.6294,84.6558,-19.0430
0.7688,-0.0804,-0.5455,-8.2397,88.5010,-18.7988
0.7699,-0.0747,-0.5179,-12.8174,88.9282,-17.2119
0.7987,-0.0709,-0.4697,-23.9868,96.1914,-15.7471
0.8062,-0.0957,-0.4187,-23.4985,94.5435,-15.5029
0.8014,-0.1006,-0.3904,-14.4653,92.0410,-17.5171
0.8146,-0.0396,-0.3579,-18.6768,85.3271,-16.9067
0.8319,-0.0349,-0.3884,-17.6392,83.9844,-13.1226
0.8333,-0.0288,-0.3422,-12.5122,84.5947,-8.9111
0.8484,-0.0771,-0.3370,-1.6479,78.7354,-4.4556
0.8783,-0.0380,-0.3970,11.9629,82.7026,-7.1411
0.8619,-0.0345,-0.3733,14.6484,83.1299,-6.5308
0.8408,0.0045,-0.2942,6.8359,82.0313,-6.8970
0.8506,0.0013,-0.2742,-9.8877,76.2329,-4.6997
0.8949,-0.0240,-0.3141,-16.1743,75.6226,-4.4556
0.9065,-0.0215,-0.2268,-8.5449,71.2891,-3.0518
0.9044,-0.0039,-0.2041,-2.0142,67.3828,-5.8594
0.8932,0.0103,-0.2383,5.1880,63.4766,-0.8545
0.8768,-0.0015,-0.2150,2.7466,62.8662,1.7090
0.8899,-0.0193,-0.2301,-1.2207,63.2935,0.4883
0.8904,-0.0226,-0.2025,-6.1035,64.5752,-0.7324
0.8672,-0.0166,-0.1281,-6.7749,61.5845,0.6104
0.8854,-0.0533,-0.0767,-7.0190,57.1289,2.3804
0.8955,-0.0697,-0.1013,-2.9907,51.2085,1.2207
0.8926,-0.0511,-0.1144,-0.1831,48.8892,1.9531
0.8771,-0.0937,-0.0483,4.2114,40.7104,4.2114
0.8719,-0.0626,0.0074,6.5308,34.8511,2.7466
0.8722,-0.0413,0.0289,5.3101,29.1138,4.2114
0.8723,-0.0679,0.0242,3.2959,23.4375,2.8687
0.8943,-0.1058,-0.1051,0.1831,19.0430,-2.0752
0.8978,-0.0974,-0.1086,-3.7231,20.9351,-5.7373
0.8971,-0.0833,-0.0585,-9.3994,19.6533,-8.0566
0.8986,-0.0747,-0.0405,-10.3760,16.4795,-8.6670
0.9102,-0.0375,-0.0472,-7.4463,10.4370,-12.3291
0.9100,-0.0054,-0.0376,-5.6152,8.4229,-13.7939
0.9147,0.0238,-0.0121,-2.3193,3.8452,-10.6812
0.9355,0.0509,0.0077,0.6714,-3.2349,-4.6997
0.9490,0.0339,-0.0397,0.9155,-6.9580,0.8545
0.9585,0.0077,-0.1351,0.3662,-6.2256,2.5635
0.9589,-0.0007,-0.1665,-0.2441,-2.6855,2.7466
0.9640,-0.0165,-0.1124,-0.4272,-2.0752,2.1362
0.9708,-0.0254,-0.1244,1.8311,-1.7090,2.6855
0.9741,-0.0291,-0.1190,4.1504,-1.3428,3.9062
0.9745,-0.0328,-0.0931,6.8359,-1.7700,5.5542
0.9601,-0.0610,0.0138,6.1646,-6.7139,3.8452
0.9380,-0.0757,0.0481,5.6763,-12.2070,1.7090
0.9209,-0.0573,0.0917,5.0659,-18.1274,-0.9155
0.9172,-0.0505,0.1420,2.4414,-27.1606,-2.2583
0.8727,-0.0084,0.2754,9.7046,-48.7061,-4.2114
0.8275,0.0092,0.3988,15.9302,-67.6270,-2.2583
0.7933,-0.0372,0.4481,20.9351,-91.4307,-0.2441
0.7040,-0.0902,0.4199,23.8037,-138.8550,-4.3945
0.6497,-0.0729,0.5201,21.0571,-171.0205,-7.0801
0.6083,-0.0519,0.5400,16.3574,-208.0688,-11.8408
0.5397,-0.0496,0.4447,16.0522,-239.1968,-18.8599
0.4651,-0.0265,0.1047,46.6309,-292.9687,-21.0571
0.4506,-0.0430,-0.1614,54.3213,-313.8428,-15.9302
0.4218,-0.1018,-0.5519,74.5239,-323.9746,-14.4043
0.3765,-0.1074,-0.9261,82.6416,-312.1948,-11.4746
0.4015,-0.1049,-0.8763,54.5044,-273.4985,-18.0664
0.3263,-0.1272,-0.7721,42.6636,-276.9775,-15.3809
0.2657,-0.1310,-0.7029,39.3066,-293.3960,-18.3105
0.2130,-0.0392,-0.6227,35.9497,-308.7769,-19.4092
0.0513,0.0303,-0.4438,46.9360,-363.2202,-22.1558
-0.0111,-0.0203,-0.5994,72.6318,-382.0190,-27.8931
-0.1433,-0.0466,-0.8848,101.5625,-374.8779,-19.7144
-0.1292,-0.4105,-1.5298,94.8486,-351.5015,-22.0947
-0.0751,-0.2740,-1.8845,61.0962,-326.2939,-31.6772
-0.0701,-0.0222,-1.9489,19.6533,-282.0435,-13.1836
-0.1450,0.0702,-1.7225,-16.6626,-249.2065,23.7427
-0.2877,-0.1002,-1.1510,-38.8794,-236.6333,60.9131
-0.2487,-0.2080,-1.0114,-35.7666,-232.6660,56.6406
-0.2216,-0.2318,-0.8898,-24.9634,-229.0649,34.9121
-0.3063,-0.1564,-0.7765,-8.3008,-235.1074,15.3198
-0.4631,-0.1218,-0.8453,12.3901,-250.6104,2.3193
-0.5094,-0.0825,-0.9532,12.5122,-262.4512,-2.0142
-0.5536,-0.0455,-1.2139,-2.8687,-269.1650,16.9678
-0.4828,-0.1508,-1.5516,-21.5454,-248.8403,29.3579
-0.5403,-0.1382,-1.3372,-29.1138,-191.8945,59.0820
-0.6360,-0.2000,-1.0322,-28.9917,-185.5469,61.2793
-0.6973,-0.1429,-0.8367,-31.4941,-193.0542,61.9507
-0.7511,-0.1227,-0.6230,-19.1650,-190.0635,52.3682
-0.7134,-0.1271,-0.5321,-14.2822,-202.0874,39.3066
-0.6990,-0.0592,-0.6393,-4.3335,-208.9233,26.1841
-0.7123,0.0377,-0.7649,6.0425,-204.3457,24.0479
-0.8241,0.0823,-0.7930,-2.8687,-204.0405,33.1421
-0.8662,0.0264,-0.9109,-22.6440,-204.4678,38.2080
-0.8973,-0.0374,-0.9984,-38.2080,-196.1670,39.3677
-0.9318,-0.0645,-0.9729,-35.7666,-185.6079,40.2832
-0.9644,-0.1230,-0.8073,-27.0996,-169.5557,38.4521
-0.9933,-0.0907,-0.7147,-23.4375,-163.4521,30.9448
-1.0167,-0.0573,-0.6293,-18.3105,-162.3535,27.7710
-1.0162,-0.0170,-0.6051,-11.0474,-159.5459,20.8740
-1.0432,0.0176,-0.4762,-8.6670,-155.1514,19.4092
-1.0272,0.0002,-0.4598,-10.4980,-156.7993,12.5732
-1.0417,0.0134,-0.4819,-12.7563,-159.0576,7.2021
-1.1193,0.0016,-0.5662,0.4883,-149.5972,-0.9155
-1.1528,0.0144,-0.5717,-3.8452,-142.2729,1.0376
-1.1571,-0.0138,-0.5868,-10.3760,-134.4604,4.8828
-1.1368,-0.0168,-0.5511,-6.8970,-124.4507,3.6621
-1.0924,-0.0582,-0.2085,-3.7842,-117.5537,5.1880
-1.0233,-0.0829,-0.2008,-6.2256,-118.2251,-0.7935
-0.9980,-0.0730,-0.3141,-6.9580,-113.8306,-10.3149
-1.0063,0.0078,-0.4218,-1.1597,-103.1494,-17.1509
-1.0085,0.1383,-0.4745,-5.6763,-79.6509,-12.2681
-1.0311,0.1162,-0.3970,-11.8408,-73.2422,-9.5215
-1.0178,0.0469,-0.2969,-11.7187,-68.9087,-5.1270
-0.9845,-0.0054,-0.2458,-7.3853,-62.1948,-6.8359
-0.9818,0.0067,-0.1552,1.0986,-51.1475,-3.1738
-0.9707,0.0000,-0.1442,4.7607,-47.7295,-5.6763
-0.9662,0.0149,-0.1624,6.4697,-42.6025,-6.9580
-0.9703,0.0322,-0.2047,0.8545,-33.2642,-10.8032
-0.9711,0.0579,-0.2737,-4.4556,-26.4893,-8.9111
-0.9672,0.0688,-0.3018,-7.4463,-16.4795,-5.4932
-0.9749,0.0740,-0.2787,-7.3853,-6.7139,-2.6245
-0.9916,0.0770,-0.0402,-4.4556,3.5400,2.9297
-0.9927,0.0482,0.1444,-3.8452,-0.8545,3.9062
-0.9854,0.0132,0.2534,-1.5259,-11.7187,0.7935
-0.9617,-0.0073,0.2090,1.2817,-19.8364,-1.0376
-0.9340,0.0089,-0.0928,6.8970,-18.7378,-8.3618
-0.9420,0.0620,-0.2207,2.2583,-12.2681,-8.2397
-0.9565,0.1071,-0.3134,-4.0894,-2.1973,-5.8594
-0.9718,0.1250,-0.3125,-7.6904,7.8735,-1.2207
-1.0325,0.0953,-0.0492,-10.0098,19.7144,5.7373
-1.0581,0.0364,0.2358,-3.6621,12.5122,10.4370
-1.0370,-0.0328,0.4160,4.6387,-2.9907,7.0190
-0.9829,0.0027,0.1787,9.8877,-26.0620,-0.4883
-0.9717,0.0190,-0.0477,7.9956,-26.4282,-2.6245
-0.9724,0.0421,-0.2268,2.5024,-20.2026,-2.0752
-0.9866,0.0347,-0.3363,-3.6011,-9.3384,-0.2441
-1.0406,0.0243,-0.3374,-9.8267,17.1509,1.8921
-1.1039,0.0618,-0.2101,-7.0190,26.9775,2.8687
-1.1531,0.0631,0.0074,-5.2490,27.8931,6.7139
-1.1548,0.0131,0.1794,-1.6479,21.5454,4.2725
-1.1384,-0.0272,0.0925,-1.4038,8.4839,-7.4463
-1.1383,-0.0173,-0.1329,-0.7935,10.8032,-12.2681
-1.1412,0.0408,-0.3551,-0.4883,21.7285,-15.5640
-1.1494,0.0946,-0.5360,-6.8359,39.0015,-13.3057
-1.1842,0.1163,-0.7748,-17.6392,89.9048,-10.7422
-1.2439,0.1219,-0.7653,-18.1885,119.2627,-5.8594
-1.3185,0.0796,-0.5813,-8.0566,139.4653,2.5635
-1.3126,-0.0010,-0.2554,2.3804,150.6348,3.7231
-1.2549,-0.0271,-0.2223,8.0566,154.2358,2.5635
-1.1893,-0.0502,-0.2654,12.4512,159.7290,-3.2349
-1.1183,-0.0505,-0.3706,16.3574,168.1519,-9.8877
-1.0232,-0.0977,-0.8427,-5.0049,204.4678,-25.7568
-1.0377,-0.1060,-1.0303,-13.2446,237.1216,-36.9873
-1.1731,-0.0701,-1.0179,-9.7656,263.1836,-32.2266
-1.3145,-0.0275,-0.8441,1.9531,274.3530,-20.2026
-1.3428,-0.0114,-0.3020,13.9160,272.8271,-11.9629
-1.2622,-0.0129,-0.0975,11.2305,254.4556,-17.2119
-1.0900,-0.0150,-0.0937,8.4229,239.8682,-18.6768
-0.9556,-0.0347,-0.2356,6.2866,229.0649,-21.4844
-0.7693,-0.0320,-0.8269,5.4321,233.9478,-32.5928
-0.7345,-0.0254,-1.1201,12.6343,255.7983,-30.8228
-0.7554,-0.0010,-1.3091,21.0571,284.7900,-30.7617
-0.9049,0.0585,-1.1248,6.2866,321.2280,-8.9111
-1.0615,-0.0222,-0.8561,-4.6997,322.2656,-0.7935
-1.1255,-0.0364,-0.4335,-0.9155,301.6357,4.6997
-0.9308,-0.0762,-0.2389,8.6670,262.7563,17.9443
-0.4843,-0.2570,-0.6299,20.6909,226.8677,-4.9438
-0.3656,-0.2148,-0.8947,19.3481,226.0742,-20.2637
-0.2913,-0.1222,-1.1268,19.5923,237.4878,-29.6631
-0.2186,-0.0714,-1.2686,17.4561,260.6812,-29.6021
-0.3562,-0.0402,-1.1880,12.5732,301.5137,-31.0059
-0.4490,-0.0369,-0.8724,14.0991,286.7432,-11.9629
-0.3843,-0.0765,-0.5684,13.2446,268.2495,-6.8970
-0.2239,-0.0864,-0.4497,6.3477,239.5630,-7.5073
0.0116,-0.0347,-0.6569,2.1362,201.6602,-13.2446
0.1044,0.0016,-0.7428,4.5776,191.8335,-9.0942
0.1764,-0.1031,-0.9628,-3.6011,187.8662,-9.0942
0.2067,-0.1588,-1.1006,-17.7612,217.9565,-24.2310
0.2042,-0.1705,-0.9596,-23.1323,222.2290,-24.2310
0.2191,-0.1304,-0.7814,-22.9492,220.2759,-23.4375
0.2743,-0.0197,-0.5499,-22.5830,206.6040,-13.9160
0.4133,-0.0361,-0.6093,-24.1699,171.2646,-1.2817
0.4403,-0.0770,-0.7070,-20.2637,166.9312,2.4414
0.4678,-0.0869,-0.6600,-13.5498,167.2363,1.0986
0.5204,-0.0406,-0.6224,-12.5732,156.9824,2.0752
0.5295,-0.0771,-0.8201,-18.9819,148.4375,3.9062
0.4989,-0.0605,-0.7256,-16.4795,150.3296,-3.9062
0.5687,-0.0563,-0.7332,-20.1416,141.4795,-5.3101
0.6024,-0.0833,-0.7468,-13.3667,143.3105,-11.3525
0.6464,0.0380,-0.4528,-0.1221,121.9482,-8.6670
0.7200,-0.0110,-0.5302,-3.5400,110.9009,-5.3101
0.7576,-0.0160,-0.5897,-0.6714,111.8164,-6.5308
0.7579,-0.0292,-0.6432,-3.6011,111.6943,6.7139
0.7645,-0.0474,-0.7157,2.3193,118.5303,4.4556
0.7603,0.0250,-0.6073,3.0518,124.8779,4.3335
0.7720,0.0251,-0.4785,-4.1504,119.2017,8.5449
0.7993,0.0250,-0.4568,-16.2354,108.8257,3.7231
0.7896,0.0602,-0.3124,-9.8877,95.8862,8.6670
0.8162,0.0020,-0.3591,-10.1318,82.2754,11.9019
0.8441,0.0234,-0.3776,-2.2583,83.6182,9.5825
0.8507,0.0044,-0.2986,-2.4414,78.7964,9.2163
0.8577,-0.0349,-0.2981,-1.5259,74.8901,7.3242
0.8568,-0.0612,-0.3287,-2.5635,72.2656,6.0425
0.8687,-0.0189,-0.2328,-5.4932,67.5659,5.8594
0.8693,-0.0122,-0.2137,-5.7983,59.8755,8.2397
0.8721,-0.0165,-0.2321,-8.7280,55.0537,9.5215
0.8870,-0.0398,-0.2015,-6.5918,48.9502,10.4370
0.8949,-0.0490,-0.2378,-8.4229,37.0483,3.4180
0.8910,-0.0458,-0.2827,-7.9956,35.3394,2.8687
0.8870,-0.0100,-0.2441,-7.5684,35.2173,1.1597
0.8956,0.0093,-0.1466,-5.9814,27.7710,4.3335
0.9083,-0.0239,-0.2102,-5.0659,12.6343,-1.0986
0.9086,-0.0063,-0.2825,-3.7231,10.1318,-1.2817
0.9131,-0.0040,-0.3556,-2.0142,11.8408,0.0610
0.9104,-0.0094,-0.3328,-1.8921,16.7847,3.4180
0.9139,-0.0499,-0.3158,-2.5635,15.8081,4.5166
0.9270,-0.0590,-0.3081,-1.0986,15.2588,3.5400
0.9353,-0.0389,-0.2480,-1.4648,13.6108,2.3804
0.9406,0.0137,-0.1943,2.4414,4.4556,2.8076
0.9348,0.0349,-0.2063,3.7231,0.7324,4.8828
0.9346,0.0281,-0.2258,2.0142,-2.7466,6.5918
0.9382,-0.0193,-0.3514,-2.5635,-4.8828,8.3618
0.9430,-0.0592,-0.4343,-4.0283,10.8643,4.3335
0.9478,-0.0708,-0.3177,-5.2490,11.0474,2.6245
0.9443,-0.0732,-0.2446,-4.2725,9.1553,2.1362
0.9446,-0.0712,-0.1976,0.4272,4.6387,4.2725
0.9417,-0.0685,-0.1649,2.9297,-4.7607,1.8921
0.9470,-0.0573,-0.1801,2.1362,-9.2773,1.0376
0.9456,-0.0549,-0.2329,2.1973,-10.6812,-0.1221
0.9303,-0.0975,-0.3292,1.9531,-6.4697,1.0986
0.9323,-0.1057,-0.3593,-2.3193,-4.2725,-1.4648
0.9397,-0.0848,-0.3691,-3.4180,-0.1221,-4.3945
0.9413,-0.0449,-0.2988,-4.3335,1.4648,-5.6763
0.9436,-0.0237,-0.2001,-0.6714,-6.4087,-3.2959
0.9396,-0.0189,-0.2128,-0.0610,-10.1318,-1.6479
0.9341,-0.0322,-0.2321,2.6855,-12.6953,2.3193
0.9333,-0.0670,-0.2806,4.0283,-14.2212,3.9062
0.9330,-0.0969,-0.2924,0.9766,-9.6436,1.7700
0.9202,-0.1335,-0.1737,1.4648,-10.7422,-0.6714
0.8964,-0.1576,-0.0505,1.8921,-18.6768,-4.9438
0.8739,-0.1686,0.0441,1.0986,-29.0527,-8.9111
0.8363,-0.1504,0.1592,-0.4883,-61.8896,-15.2588
0.8215,-0.1079,0.1335,-0.3052,-76.7822,-20.6299
0.8096,0.0222,0.2324,4.0283,-94.4824,-23.8647
0.7335,0.2157,0.7277,24.9023,-160.0342,-9.7656
0.6276,0.2410,0.8229,36.4380,-210.5103,2.1973
0.4869,0.1199,0.5099,42.2363,-260.7422,15.8081
0.3890,-0.0784,-0.2677,45.2271,-290.8325,23.1323
0.4120,-0.0829,-0.8860,32.7759,-261.3525,24.5361
0.4515,-0.1542,-0.9417,26.7944,-254.7607,18.7988
0.4602,-0.1844,-1.0194,19.0430,-240.4175,7.6904
0.4425,-0.1339,-0.9587,5.5542,-231.9946,0.5493
0.3831,-0.0714,-0.4636,-2.1362,-245.1782,-6.2866
0.3063,-0.0616,-0.2592,17.4561,-268.5547,-5.8594
0.1570,-0.1073,-0.1439,45.2271,-296.8140,-4.2725
0.0369,-0.1720,-0.3751,73.2422,-333.8013,-12.7563
-0.0558,-0.2374,-1.6033,89.9048,-330.3223,-27.7710
-0.1401,0.0312,-1.6390,55.9082,-283.2031,-20.2637
-0.1674,-0.0635,-1.1895,22.6440,-253.1738,23.3765
-0.2512,-0.1051,-0.7279,10.7422,-291.5649,11.8408
-0.3158,-0.2167,-0.7240,29.8462,-305.4810,31.1890
-0.3174,-0.3770,-0.8368,46.2036,-309.2651,23.1934
-0.3448,-0.4220,-1.1843,60.4248,-308.0444,7.6904
-0.2981,-0.2150,-2.2646,25.5737,-238.8306,-5.0659
-0.3265,-0.0087,-2.1810,-7.8735,-181.1523,0.8545
-0.4175,0.0922,-1.7509,-22.9492,-152.0996,25.1465
-0.4790,-0.0453,-1.3027,-33.6914,-144.7144,38.2690
-0.4331,-0.2544,-0.7183,-33.0200,-159.4238,31.6162
-0.4341,-0.3215,-0.6519,-14.5264,-173.4619,26.6724
-0.4250,-0.3347,-0.6274,2.8687,-179.9316,17.0898
-0.4224,-0.3201,-0.8159,13.0615,-186.2793,9.0942
-0.3809,-0.1957,-1.7656,-17.7612,-146.8506,-7.2632
-0.4178,-0.0214,-1.7623,-31.7993,-111.6943,-1.5259
-0.4683,0.0822,-1.4874,-38.2690,-86.2427,19.5313
-0.6289,-0.0074,-0.7383,-61.3403,-90.0879,38.7573
-0.6639,-0.0691,-0.5658,-59.6313,-105.7129,41.6870
-0.6431,-0.1516,-0.5155,-48.5229,-122.7417,42.8467
-0.5879,-0.2209,-0.5468,-38.6963,-131.4697,32.7759
-0.5510,-0.1227,-0.5963,-4.8218,-137.3901,9.4604
-0.5522,-0.0662,-0.7179,1.3428,-139.8926,4.4556
-0.6232,-0.0182,-0.9152,-6.8970,-136.9629,4.5166
-0.6935,0.0067,-1.0607,-19.5923,-127.8076,5.6152
-0.7616,0.0791,-0.9023,-25.1465,-111.0229,21.4233
-0.8075,0.0559,-0.6799,-19.4702,-116.6992,36.4380
-0.8311,-0.0050,-0.5552,-17.8223,-125.4272,40.0391
-0.8411,-0.0284,-0.5063,-18.1274,-131.2866,35.8276
-0.8029,-0.0348,-0.6763,-8.7280,-131.8359,19.5923
-0.8101,-0.0281,-0.7555,-7.1411,-126.5869,15.0146
-0.8109,-0.0286,-0.8313,-5.2490,-119.9341,14.9536
-0.8728,-0.0232,-0.8257,-6.4087,-100.7690,10.5591
-0.8943,-0.0057,-0.7224,-5.6763,-94.4824,11.4746
-0.9183,-0.0095,-0.5874,-4.3335,-91.7969,11.5967
-0.9434,-0.0170,-0.4536,-1.7700,-94.2383,10.5591
-0.9520,-0.0623,-0.2966,2.1362,-108.0933,11.4746
-0.9426,-0.0604,-0.3135,9.3384,-114.3188,10.3760
-0.9473,-0.0223,-0.3484,11.9019,-116.6382,7.8735
-0.9465,-0.0071,-0.3955,8.6670,-118.8354,6.7139
-0.9708,-0.0474,-0.5417,-1.8311,-115.1733,-2.3193
-0.9777,-0.0720,-0.5485,-0.9766,-111.3281,-4.5776
-1.0018,-0.0696,-0.4772,-2.2583,-107.7271,-12.4512
-1.0276,-0.0366,-0.3237,-8.7891,-111.5112,-18.7378
-1.0441,-0.0193,-0.2263,-32.1655,-135.8643,-21.7896
-1.0322,0.0199,-0.2964,-16.3574,-119.2017,-8.3618
-1.0269,-0.0864,-0.2633,-0.4883,-109.9854,-1.6479
-1.0291,0.0424,-0.3018,15.9302,-107.2388,-13.4277
-1.0311,0.0862,-0.3925,10.0708,-103.8208,-8.7280
-1.0529,0.1090,-0.4617,7.0801,-96.4966,-4.8218
-1.0552,0.1263,-0.4730,6.4697,-86.6699,3.7231
-1.0226,0.0830,-0.3795,5.9814,-66.7114,12.4512
-1.0247,0.0532,-0.2913,6.5308,-62.6221,16.7847
-1.0107,-0.0060,-0.2485,10.4370,-59.5703,14.8926
-0.9944,0.0001,-0.2015,12.8174,-53.5278,10.7422
-0.9818,-0.0675,-0.1560,9.2773,-52.2461,5.3101
-0.9869,-0.0712,-0.2023,8.6060,-46.0815,-1.7700
-0.9999,-0.0382,-0.2352,8.6670,-40.5273,-5.3711
-1.0126,-0.0027,-0.2928,7.6904,-31.7383,-2.8687
-1.0177,0.0264,-0.2546,5.1270,-12.2681,0.9766
-1.0282,0.0570,-0.1714,2.8687,-7.0190,3.6011
-1.0317,0.0704,-0.0818,3.4180,-5.6763,6.4697
-1.0281,-0.0010,0.0051,-2.3804,-10.8032,11.1694
-1.0209,-0.0405,-0.0121,3.2349,-12.2681,9.5825
-1.0099,-0.0365,-0.0354,5.6763,-12.4512,8.1787
-1.0044,-0.0229,-0.0923,4.8218,-12.0850,5.8594
-1.0032,-0.0070,-0.2124,2.4414,-2.0752,3.9062
-1.0221,-0.0188,-0.1949,-1.8921,3.2959,2.0752
-1.0358,-0.0282,-0.1274,-0.1221,6.2866,0.2441
-1.0393,-0.0166,-0.0237,0.6104,6.5918,-0.3662
-1.0210,-0.0137,0.0598,2.4414,-0.3052,-2.5024
-1.0198,0.0282,0.0317,4.0283,-2.7466,-2.1973
-1.0177,0.0409,-0.0094,3.8452,-5.0049,-0.4272
-1.0110,0.0256,-0.1525,-0.9766,-3.1128,2.1362
-1.0150,0.0131,-0.2180,-3.1128,2.0752,0.9766
-1.0184,0.0288,-0.2366,-4.3335,9.5215,0.9155
-1.0383,0.0254,-0.1907,-5.9814,15.3809,3.3569
-1.0397,-0.0635,0.0664,-3.2959,13.4888,2.0142
-1.0177,-0.0782,0.1007,-1.5869,8.6670,-3.6621
-1.0099,-0.0231,0.0481,1.5869,4.9438,-8.3618
-1.0219,0.0582,-0.2267,-1.4038,7.1411,-4.1504
-1.0380,0.0481,-0.3591,-4.6997,17.7612,-3.2959
-1.0558,0.0684,-0.4478,-9.9487,31.7383,0.0610
-1.0745,0.0895,-0.5372,-18.7988,47.9736,4.2114
-1.1288,0.1117,-0.5897,-22.2168,87.4634,13.0005
-1.1769,0.1233,-0.4156,-14.4043,102.7832,21.3623
-1.1962,0.0734,-0.1714,-5.0049,108.2153,25.3296
-1.1421,-0.0090,-0.0155,9.5215,105.0415,25.0854
-1.0150,-0.1056,-0.0575,22.3999,99.9146,-0.3662
-0.9965,-0.0780,-0.2585,11.7798,98.3276,-11.4136
-0.9534,-0.0277,-0.5712,4.0894,111.6943,-20.6909
-0.9567,0.1151,-1.0056,-8.1177,166.7480,-26.1841
-1.0988,0.1844,-0.9789,-7.9346,194.1528,-15.3809
-1.2328,0.1786,-0.7513,0.4272,207.8247,12.8174
-1.2743,0.0504,-0.4590,3.3569,209.5337,23.5596
-1.1238,-0.0660,-0.1282,8.4839,193.7256,7.7515
-1.0313,-0.0990,-0.2008,4.5776,186.3403,-3.7231
-0.9833,-0.1122,-0.4539,7.2632,185.6689,-18.7378
-0.9349,-0.0865,-0.7980,9.0332,197.7539,-30.5176
-0.9205,0.0333,-1.3534,24.8413,258.0566,-34.9731
-1.0244,0.0767,-1.3413,21.9116,295.2881,-27.8320
-1.1581,0.1838,-1.1454,21.4233,308.3496,-16.0522
-1.2606,0.2296,-0.7876,23.3154,311.1572,22.4609
-1.0525,-0.0742,-0.2823,16.3574,268.3716,22.8882
-0.8701,-0.0410,-0.3136,13.4888,245.0562,7.6294
-0.7119,-0.0895,-0.5056,3.8452,228.4546,3.4180
-0.5271,-0.2046,-1.1854,-4.9438,240.6006,-24.4751
-0.4976,-0.1361,-1.3599,1.4648,266.9678,-31.6162
-0.5243,-0.0315,-1.3446,8.4839,292.9687,-31.6772
-0.6356,0.1079,-1.1232,12.2070,305.6641,-30.1514
-0.5719,0.0367,-0.6786,-14.0381,272.3389,1.2817
-0.4807,-0.1243,-0.6254,-28.1982,252.5635,2.6245
-0.3865,-0.1691,-0.6024,-29.3579,231.3843,-1.1597
-0.1687,-0.1364,-0.9541,-14.6484,211.2427,-6.8359
-0.1045,-0.0746,-1.1453,-6.5918,217.0410,-12.2070
-0.0845,0.0175,-1.2157,-4.4556,225.9521,-14.1602
-0.0851,0.0675,-1.1615,-5.9814,233.2153,-9.2773
-0.0200,-0.1215,-0.9542,-3.7231,232.4829,-13.3057
0.0308,-0.0177,-0.8596,0.0000,225.0977,-23.0713
0.0707,0.0906,-0.8241,6.1035,214.2334,-17.0288
0.1301,0.0905,-0.8499,7.0801,206.7871,-3.9062
0.2511,0.0122,-0.9852,3.1738,201.1719,3.6621
0.2864,0.0005,-1.0250,-1.5259,207.7637,0.6104
0.3199,-0.0018,-0.9482,-7.6904,212.8296,-0.7324
0.3689,-0.0460,-0.9043,-9.0942,211.7310,-1.4038
0.3885,0.0596,-0.8033,-2.9907,215.3931,-5.8594
0.3516,0.0870,-0.7086,-2.5024,207.0923,1.2207
0.4020,0.0316,-0.6471,-3.6621,197.0215,7.6904
0.4971,-0.0498,-0.6112,1.9531,182.9224,2.8076
0.5568,0.0236,-0.5753,2.1973,181.0303,1.7700
0.6346,-0.0039,-0.4677,1.0986,175.4150,6.8970
0.6826,-0.0662,-0.4537,3.0518,166.6260,2.0142
0.7190,-0.0159,-0.5621,-10.0708,161.1328,-6.1035
0.7291,-0.0197,-0.5466,-10.1318,162.2925,-8.2397
0.7097,0.0518,-0.3347,-10.7422,159.8511,-7.3853
0.7305,0.0562,-0.1213,-6.6528,139.7095,2.2583
0.8134,-0.0056,-0.1570,-11.7798,104.5532,-2.8687
0.8433,0.0031,-0.2493,-13.2446,93.9331,-0.6104
0.8544,-0.0255,-0.4065,-19.8364,90.8203,-1.1597
0.8494,-0.0217,-0.4952,-19.8364,96.9849,0.0000
0.8536,0.0242,-0.2068,-12.3901,98.3887,2.5024
0.8478,0.0173,-0.1084,-9.5825,85.8765,3.6011
0.8757,0.0334,-0.1588,-2.5635,76.2939,4.2725
0.9185,0.0859,-0.2097,6.8970,67.9321,11.2305
0.9136,0.0703,-0.2842,7.8125,65.8569,14.4043
0.9164,0.0485,-0.2821,7.3853,67.3218,17.5171
0.9257,-0.0038,-0.2395,2.9297,64.0259,18.6768
0.9113,0.0284,-0.2288,-1.5259,56.9458,14.9536
0.9122,-0.0096,-0.1914,-1.7700,53.7720,14.8315
0.9551,-0.0533,-0.2122,-0.3662,49.1333,10.0098
0.9572,-0.0223,-0.2240,1.1597,49.3164,6.1646
0.9648,0.0022,-0.1705,0.3052,41.6870,2.3193
0.9634,0.0303,-0.2018,0.8545,39.9170,2.9907
0.9634,0.0415,-0.2172,-0.9155,40.0391,4.9438
0.9602,0.0391,-0.1584,0.3662,40.4663,5.6763
0.9556,-0.0035,-0.0448,2.3193,27.7710,13.3667
0.9547,-0.0364,-0.0996,3.9062,21.8506,9.5825
0.9440,-0.0081,-0.1621,1.0376,20.5688,6.2256
0.9438,-0.0590,-0.1460,-2.1362,19.7754,7.8125
0.9441,-0.0649,-0.1199,-5.5542,17.7002,3.7231
0.9448,-0.0366,-0.1310,-6.2866,15.7471,2.9907
0.9502,0.0005,-0.0819,-0.5493,14.7705,6.8359
0.9559,-0.0122,-0.0675,3.2959,9.3384,7.9956
0.9584,-0.0421,-0.1351,1.5869,6.9580,5.4932
0.9572,-0.0292,-0.1521,0.9766,7.9346,2.9297
0.9609,-0.0302,-0.0522,1.1597,1.1597,4.3335
0.9617,-0.0334,-0.0868,1.2207,-2.5635,2.0752
0.9606,-0.0396,-0.1127,3.4790,-3.9673,4.6387
0.9653,-0.0847,-0.1359,2.0142,-4.3945,4.1504
0.9663,-0.0664,-0.1576,-0.4272,-1.8921,-3.4790
0.9689,-0.0482,-0.1156,0.4272,-2.4414,-4.3335
0.9683,-0.0216,-0.1036,-1.4648,-4.3945,-3.6011
0.9698,-0.0118,-0.1342,-1.0376,-5.6152,-1.1597
0.9702,-0.0461,-0.1163,3.6011,-4.3335,0.6714
0.9719,-0.0381,-0.1056,4.0283,-6.5918,-1.0376
0.9720,-0.0125,-0.1189,2.4414,-8.4229,-1.4038
0.9784,-0.0293,-0.1754,2.6855,-7.9346,0.2441
0.9834,-0.0348,-0.1602,4.8828,-6.2866,0.1221
0.9829,-0.0311,-0.1187,5.8594,-7.0190,-0.4272
0.9843,-0.0320,-0.1317,5.2490,-9.6436,-0.7935
0.9823,0.0107,-0.1687,2.3193,-8.7891,0.9155
0.9810,-0.0016,-0.1687,0.9766,-9.9487,1.8921
0.9817,-0.0188,-0.2015,0.4272,-8.8501,2.5024
0.9769,-0.0377,-0.1848,1.7700,-7.5073,2.3193
0.9742,-0.0906,-0.0808,3.2349,-15.1978,-0.5493
0.9742,-0.0865,-0.1001,2.0752,-19.7754,-2.5024
0.9736,-0.0919,-0.0854,1.9531,-23.6816,-5.2490
0.9689,-0.0874,-0.0841,1.2207,-28.9307,-8.7891
0.9467,-0.0166,-0.0046,2.4414,-39.9170,-9.1553
0.9382,0.0272,0.0845,7.2021,-50.5981,-7.9956
0.9258,0.0880,0.1757,12.0850,-64.0259,-7.5073
0.8721,0.1331,0.3484,27.6489,-104.7363,0.9766
0.8208,0.1340,0.4011,33.1421,-129.2114,5.6763
0.7396,0.1674,0.4675,35.6445,-156.6772,16.0522
0.6979,-0.0111,0.4596,34.5459,-187.6221,37.7808
0.6489,-0.1908,-0.0087,26.8555,-240.8447,16.1743
0.5790,-0.3258,-0.4906,29.9072,-254.0283,8.3618
0.5366,-0.2295,-0.7916,32.7759,-237.6099,8.6060
0.5411,-0.1313,-0.6626,26.1841,-228.8818,15.6860
0.5536,-0.1532,-0.2507,23.5596,-248.4131,27.6489
0.4891,-0.1193,0.0031,21.4233,-274.6582,14.2212
0.3737,-0.0703,0.1522,18.0054,-315.0024,1.9531
0.1980,-0.1056,0.0774,18.4326,-358.3984,-12.9395
-0.0527,-0.0709,-0.6777,40.4663,-412.1094,-34.1187
-0.1648,-0.1053,-1.0558,50.7202,-402.5879,-33.6304
-0.2280,-0.2323,-1.4518,63.9038,-382.2632,-12.2681
-0.1302,-0.1846,-1.9319,24.7803,-284.6069,26.3062
-0.1146,-0.1079,-1.4629,-1.5869,-247.4365,33.6304
-0.1267,-0.0780,-1.0074,-12.2070,-255.0659,25.6958
-0.1440,-0.0432,-0.7930,-13.0615,-270.9961,18.8599
-0.3396,-0.2020,-0.5753,7.3242,-299.1333,12.6953
-0.3688,-0.2552,-0.7396,25.2686,-320.3735,1.8921
-0.3903,-0.2699,-1.0955,31.9824,-324.5239,-22.0947
-0.4929,-0.1138,-1.6725,19.5923,-286.8652,-13.4888
-0.4778,-0.1066,-1.9808,-11.5356,-246.9482,2.4414
-0.4716,-0.0609,-2.0422,-42.9688,-192.8711,19.6533
-0.5209,-0.0183,-1.7277,-49.2554,-155.7617,41.3208
-0.5854,-0.0200,-1.0594,-31.7383,-136.1084,75.0732
-0.5422,-0.2175,-0.7925,-26.0010,-150.2075,63.8428
-0.5232,-0.2926,-0.6945,-15.3198,-167.4805,17.8223
-0.5576,-0.1411,-0.6200,-6.3477,-174.5605,-4.1504
-0.5089,-0.0853,-0.8536,4.0894,-187.9883,-21.9727
-0.5594,-0.0640,-1.0885,-11.2305,-184.0820,-26.2451
-0.6316,-0.0050,-1.3116,-27.5879,-176.9409,-21.6675
-0.6841,0.0459,-1.4460,-37.7197,-155.3955,1.7700
-0.7404,-0.1278,-1.0065,-36.1328,-115.4785,39.0015
-0.7573,-0.1925,-0.7227,-34.7900,-117.0044,41.6870
-0.7472,-0.1888,-0.5750,-29.2969,-126.0376,42.7246
-0.6877,-0.1815,-0.6592,-10.4980,-136.3525,3.1738
-0.6992,0.0107,-0.7253,-0.3052,-128.1128,-10.9253
-0.7249,0.0883,-0.7611,0.9155,-121.2158,-9.4604
-0.7905,0.0546,-0.7340,-4.0283,-121.4600,-20.0806
-0.8414,0.0060,-0.6603,-16.1743,-137.6343,-8.4839
-0.8623,-0.0919,-0.6406,-12.8784,-136.7798,-7.9956
-0.8815,-0.1503,-0.5754,-4.0894,-135.3149,-5.4932
-0.8799,-0.1826,-0.5923,1.8921,-131.9580,-2.8076
-0.8724,-0.0392,-0.7314,14.3433,-105.7129,0.6104
-0.8721,0.0417,-0.7703,13.1226,-96.4355,4.4556
-0.9025,0.1145,-0.7637,6.6528,-88.3179,4.3945
-0.9319,0.1421,-0.6924,-2.4414,-83.9233,9.8877
-0.9148,0.0194,-0.4761,0.6104,-78.3691,23.9868
-0.8973,-0.0758,-0.3889,1.2207,-81.8481,21.7896
-0.8866,-0.1044,-0.4108,2.8687,-83.3130,15.6250
-0.9132,-0.0829,-0.4030,14.1602,-78.9795,10.4980
-0.9279,-0.0881,-0.3933,14.0381,-78.6133,5.4321
-0.9476,-0.0566,-0.4161,12.1460,-77.8809,1.5259
-0.9625,-0.0220,-0.4545,12.7563,-74.4019,0.9155
-0.9995,0.0209,-0.3585,15.3809,-65.5518,5.7373
-0.9994,0.0070,-0.2418,12.1460,-69.5190,9.5215
-0.9846,-0.0222,-0.1903,11.2305,-73.9136,12.0850
-0.9680,-0.0332,-0.1644,13.9771,-77.2095,12.1460
-0.9463,-0.0178,-0.1520,14.3433,-86.4868,13.1836
-0.9351,-0.0327,-0.1912,11.4136,-89.8438,16.3574
-0.9283,-0.0719,-0.2251,10.3760,-89.4165,15.3809
-0.9261,-0.1205,-0.2679,9.6436,-90.4541,10.7422
-1.0090,-0.0892,-0.3481,10.7422,-80.1392,-2.7466
-1.0240,-0.0695,-0.2998,9.3994,-77.3315,-4.2114
-1.0341,-0.0485,-0.2750,6.1035,-74.3408,-9.7046
-1.0546,0.0121,-0.2590,7.1411,-66.8335,-4.0894
-1.0522,0.0083,-0.2374,9.3994,-61.5234,-1.1597
-1.0406,-0.0007,-0.2303,8.6060,-57.8613,-0.6104
-1.0381,0.0037,-0.2836,5.6763,-53.2837,-3.2959
-1.0538,-0.0227,-0.3179,-1.4038,-39.5508,-4.3335
-1.0482,-0.0277,-0.3450,-4.8218,-31.0669,-5.3101
-1.0538,-0.0284,-0.3585,-4.6997,-20.8740,-5.7983
-1.0540,-0.0197,-0.2974,-2.1362,-11.2305,-5.1270
-1.0433,-0.0271,-0.1079,-0.7935,-1.4038,-1.8311
-1.0402,-0.0096,-0.0087,1.5869,-2.6855,-1.5259
-1.0328,0.0031,0.0496,2.0752,-7.0190,-0.9766
-1.0240,-0.0057,0.0193,2.3804,-12.0239,-1.0986
-1.0195,-0.0149,-0.1888,0.1221,-11.2915,-1.2207
-1.0219,-0.0157,-0.2892,-3.0518,-4.3945,-0.7324
-1.0253,-0.0109,-0.3315,-6.5918,4.2725,1.4648
-1.0408,-0.0333,-0.1282,-7.6294,16.1133,4.0894
-1.0366,-0.0790,0.0258,-4.6387,12.1460,5.3101
-1.0114,-0.1106,0.1133,-0.8545,6.7139,2.3193
-0.9966,-0.1127,0.1387,1.4038,-0.9766,-0.9155
-0.9854,-0.0580,-0.0306,3.4180,-10.9253,-5.5542
-0.9896,-0.0305,-0.1755,2.2583,-9.0942,-6.4087
-0.9963,-0.0029,-0.2849,0.2441,-2.8076,-5.0049
-1.0007,0.0035,-0.3168,-3.1128,5.6152,-1.0376
-1.0330,-0.0055,-0.1584,-6.7139,16.4185,3.1738
-1.0343,-0.0350,-0.0048,-5.9204,13.6719,4.4556
-1.0167,-0.0682,0.1028,-2.9297,7.2021,2.9297
-0.9932,-0.0762,0.1143,0.4272,0.9766,0.2441
-0.9761,-0.0188,-0.0515,4.3335,-5.1880,-2.5024
-0.9763,-0.0172,-0.1396,2.8687,-5.5542,-1.4038
-0.9780,-0.0197,-0.2241,0.1831,-1.9531,-0.9155
-1.0061,-0.0079,-0.2382,-5.9204,8.7280,1.7090
-1.0214,-0.0236,-0.1608,-5.9814,11.7187,2.7466
-1.0293,-0.0402,-0.0742,-4.7607,11.8408,2.9907
-1.0277,-0.0601,0.0132,-1.9531,9.7046,2.4414
-1.0020,-0.0730,0.0360,1.8311,-0.4272,-0.4883
-1.0017,-0.0602,-0.0564,3.6621,-1.4648,-1.0376
-1.0040,-0.0507,-0.1630,2.3193,-0.0610,-2.3193
-1.0109,-0.0396,-0.2739,-0.1831,5.2490,-3.6011
-1.0415,-0.0159,-0.4095,-5.6152,24.9634,-6.3477
-1.0631,-0.0046,-0.4318,-8.0566,37.2314,-6.1035
-1.0897,0.0164,-0.4067,-9.7046,50.1099,-4.6997
-1.1182,0.0500,-0.3049,-8.7280,59.6924,1.0376
-1.1019,-0.0529,-0.0345,-4.8828,58.5327,9.8877
-1.0674,-0.0831,-0.0072,-1.5259,54.1382,5.3101
-1.0432,-0.1051,-0.0687,-1.5259,50.8423,-0.9155
-1.0338,-0.0698,-0.4031,-4.7607,56.3354,-13.1226
-1.0220,-0.0549,-0.6377,-10.5591,70.8618,-17.2119
-0.9991,-0.0286,-0.8735,-17.8833,98.1445,-19.4092
-1.0212,0.0042,-1.0150,-23.7427,133.1177,-18.9819
-1.1906,0.0554,-0.7137,-8.7280,182.9834,-3.7231
-1.2025,0.0453,-0.4025,-2.1362,190.3687,11.1694
-1.1781,-0.0358,-0.1356,0.0610,185.9131,15.8691
-1.1057,-0.0669,-0.0131,4.6387,172.7905,9.4604
-0.9594,-0.1102,-0.2396,-5.6763,150.2075,-3.7231
-0.9063,-0.1400,-0.4973,-7.0801,150.8179,-12.1460
-0.8479,-0.1564,-0.7704,-10.4980,167.0532,-23.1323
-0.8394,-0.1733,-0.9537,-11.8408,190.8569,-29.2969
-0.9996,-0.2134,-0.9965,-6.8359,238.8916,-38.3911
-1.0642,-0.2006,-0.8638,-4.5776,250.3052,-35.2173
-1.0426,-0.2045,-0.7240,-0.3052,251.6479,-27.5269
-0.9238,-0.1382,-0.6305,15.0146,250.4272,-14.2212
-0.8499,-0.0461,-0.6549,24.4141,249.2676,-9.2773
-0.7990,0.0865,-0.7408,27.8931,248.1689,-4.2725
-0.7671,0.2196,-0.8672,31.6162,250.1221,1.6479
-0.6641,0.2976,-1.0039,-7.2021,266.0522,-1.1597
-0.6537,0.2229,-1.0082,-19.2261,268.7988,11.1694
-0.6564,0.0845,-1.0209,-25.0854,271.1182,22.0947
-0.7236,-0.0576,-0.9452,-22.4609,267.6392,28.8086
-0.5984,-0.3440,-0.6538,-5.1880,227.3560,18.6768
-0.4723,-0.3590,-0.7810,-2.3193,218.7500,-8.7891
-0.3529,-0.2021,-0.8525,1.2817,223.0225,-27.5879
-0.2753,-0.0614,-0.8652,4.2725,218.3838,-21.7896
-0.2212,-0.0089,-0.9792,3.4180,210.2661,-16.9067
-0.1968,0.0343,-0.9663,-1.0986,207.9468,-12.8784
-0.1519,-0.0283,-0.9587,-12.9395,203.3081,-4.8218
-0.0500,-0.1416,-0.9838,-21.2402,194.7632,-9.0942
-0.0457,-0.1123,-0.9883,-13.6719,187.3169,-3.1738
-0.0255,-0.0723,-1.0112,-9.7046,192.0776,0.1831
0.0546,-0.0947,-1.0247,-4.3335,194.0308,6.5918
0.1794,-0.1345,-1.0524,10.0098,198.8525,-5.3711
0.2161,-0.0400,-1.0562,12.2681,202.1484,-7.1411
0.2247,-0.0024,-1.0173,6.9580,205.2612,-4.0894
0.2767,0.0006,-0.8312,4.1504,203.2471,0.3662
0.2795,-0.0903,-0.5865,-0.0610,173.1567,-0.3052
0.3602,-0.1188,-0.6992,-1.0376,157.1655,0.8545
0.4316,-0.1420,-0.8665,-1.2207,158.0200,-1.4648
0.4570,-0.0900,-0.8862,3.7842,162.5366,-3.9673
0.5173,-0.0142,-0.8250,3.9062,165.1001,4.5166
0.5271,-0.0643,-0.8304,-1.1597,165.0391,7.8125
0.5292,-0.0557,-0.7112,-5.3711,172.4243,2.5024
0.6064,-0.0392,-0.4437,3.4790,146.1182,10.6201
0.6138,-0.0262,-0.4045,1.1597,139.8926,0.3052
0.7260,-0.0189,-0.4480,-5.4932,123.7793,-0.6714
0.7191,-0.1171,-0.6565,-4.6997,113.2202,-1.5259
0.6926,-0.1198,-0.7076,-1.8311,133.7891,10.4980
0.6227,-0.1165,-0.5485,0.1831,124.3896,2.2583
0.6575,-0.0356,-0.4031,-1.6479,113.4033,-0.0610
0.7167,0.0312,-0.3467,-11.4746,100.4028,3.1738
0.7933,0.0050,-0.6515,-17.3340,97.4731,12.8174
0.8422,-0.0774,-0.6812,-10.9253,108.2764,16.1133
0.8427,-0.0883,-0.5819,-1.4648,114.3799,10.4370
0.8315,-0.0392,-0.4760,-1.3428,114.2578,8.2397
0.8208,-0.1703,-0.5165,-18.2495,100.9521,1.2817
0.7715,-0.1411,-0.5133,-29.4189,114.0137,-12.9395
0.8682,-0.1218,-0.4602,-31.7993,111.5723,-8.7891
0.9277,-0.1011,-0.3159,-19.1040,94.2993,-8.4839
0.8652,-0.0527,-0.2515,-17.0288,95.8862,-11.4746
0.9141,-0.0529,-0.2374,-21.1182,87.6465,-2.5635
0.8651,-0.0941,-0.2870,-18.0054,83.7402,-9.7046
0.8406,0.1266,-0.2751,-13.1226,79.8950,0.4883
0.9127,0.0305,-0.2751,-7.2632,82.3364,19.9585
0.9236,-0.0330,-0.1268,-1.4038,78.7354,11.5356
0.9200,0.0164,-0.0619,-5.5542,65.2466,10.4980
0.9333,0.0111,-0.1910,-9.3384,59.3262,6.7749
0.9342,0.0573,-0.1151,-15.3198,56.0303,7.8735
0.9263,-0.0153,-0.0809,-21.0571,45.7764,10.8032
0.9116,-0.0205,-0.1190,-23.9868,43.5181,3.6011
0.9680,0.0336,-0.1398,-21.9727,48.7671,13.6719
0.9431,0.0024,-0.0468,-3.8452,46.7529,13.6108
0.9641,0.0209,0.0017,5.8594,38.0249,21.2402
0.8898,-0.1060,-0.0110,6.0425,25.6958,16.4795
0.9404,-0.1039,-0.0581,5.6763,21.1182,19.1040
0.9550,-0.1417,-0.0923,3.5400,21.4844,13.6108
0.9539,-0.1022,-0.0950,-0.9155,15.6860,1.0376
0.9562,-0.0863,-0.0435,-0.7324,12.8784,3.6011
0.9563,-0.0917,0.0031,0.7324,6.6528,2.6855
0.9594,-0.0931,-0.0115,-3.4180,1.0986,1.4038
0.9602,-0.0881,-0.0454,-5.4321,-3.1738,1.4648
0.9720,-0.0977,-0.0786,-4.7607,-6.9580,1.4038
0.9767,-0.1162,-0.1201,-4.1504,-8.4839,-0.6104
0.9840,-0.1183,-0.1899,-7.2021,-6.8359,-2.8687
0.9882,-0.1200,-0.2023,-11.0474,-3.8452,-7.0190
0.9912,-0.0507,-0.1534,-11.9019,-0.8545,-7.7515
0.9850,-0.0513,-0.1041,-9.5825,-2.8076,-2.2583
0.9873,-0.0883,-0.0776,-6.1035,-7.2632,-1.7700
0.9861,-0.0623,-0.1423,-2.1973,-10.7422,2.1362
0.9850,-0.0696,-0.1774,-4.8218,-7.3242,-1.0986
0.9827,-0.0663,-0.1985,-9.0942,-6.2256,-4.2114
0.9845,-0.0662,-0.2177,-10.7422,-4.9438,-11.1694
0.9769,-0.0283,-0.0981,-5.6763,-6.2256,-10.2539
0.9697,-0.0437,-0.0660,-2.3193,-10.2539,-9.8267
0.9668,-0.0420,-0.0988,-1.5259,-13.6719,-9.7656
0.9594,-0.0294,-0.0978,1.2207,-14.6484,-9.2773
0.9497,-0.0676,-0.0677,4.2114,-19.7144,-9.4604
0.9337,-0.0443,-0.0317,6.7749,-21.5454,-12.6343
0.9154,-0.0087,0.0560,6.9580,-28.1982,-11.0474
0.8934,-0.0123,0.1257,6.8970,-38.2080,-12.5122
0.8540,-0.0304,0.2607,14.5264,-68.7256,-12.8174
0.8424,-0.0070,0.2887,21.1792,-86.9141,-10.8643
0.8225,0.0231,0.1997,22.0337,-103.3936,-8.3008
0.7754,-0.0343,-0.0839,14.8926,-121.5820,-4.6387
0.7407,-0.1155,-0.1135,12.7563,-129.0894,-6.1646
0.7471,-0.1539,-0.0856,11.6577,-144.8975,-11.0474
0.7802,-0.1621,-0.1425,4.3945,-157.5928,-13.0005
0.7831,0.0244,-0.2418,1.5869,-170.3491,-16.7847
0.7578,0.0859,-0.1766,0.7324,-181.6406,-13.4888
0.7334,0.0862,-0.1937,-0.1221,-201.8433,-11.6577
0.6945,0.1011,-0.3169,0.3052,-214.1724,-9.2163
0.5780,0.0133,-0.4369,5.3711,-229.1260,-1.8311
0.5486,-0.1127,-0.6154,10.0708,-236.2671,-0.9766
0.5150,-0.2131,-0.8971,3.7842,-233.4595,-7.5684
0.4830,-0.1794,-1.1283,-7.4463,-222.4731,-11.8408
0.4884,-0.0352,-0.9154,-32.4097,-206.1157,-26.8555
0.4546,0.0363,-0.6058,-33.8745,-224.0601,-34.3628
0.4502,0.1145,-0.3394,-19.9585,-251.5869,-31.9214
0.3851,0.2113,-0.1654,27.7100,-300.0488,-14.5874
0.2706,0.1744,-0.2855,33.6304,-320.0684,-11.5967
0.1088,0.0369,-0.6257,39.6729,-335.3271,-12.5122
-0.0664,-0.1085,-1.0420,48.0347,-338.1958,-22.6440
-0.2052,-0.0125,-2.0404,14.0381,-311.2183,-21.9727
-0.1311,0.1033,-2.0717,-4.9438,-233.6426,-3.7842
-0.1090,0.0697,-1.5829,-26.6724,-190.9180,13.3057
-0.0914,0.0175,-1.0792,-25.7568,-191.4062,16.9067
-0.1158,0.0273,-0.5135,3.9062,-234.1309,18.3105
-0.1439,-0.0018,-0.4841,38.5742,-259.3994,10.0708
-0.2252,-0.0422,-0.5864,64.2090,-273.3765,1.8311
-0.3754,-0.1348,-0.9044,64.8193,-298.3398,-2.8687
-0.5007,-0.0581,-2.4279,23.9258,-220.3979,-3.6011
-0.4908,-0.0220,-2.1152,-4.8218,-131.7139,14.7705
-0.4783,-0.1304,-1.3564,-8.7280,-107.8491,23.9868
-0.4489,-0.1018,-0.5779,-0.8545,-132.8735,25.6958
-0.3975,-0.0229,-0.4631,11.2915,-152.9541,22.3999
-0.3837,0.0416,-0.4783,21.6675,-171.3257,18.7988
-0.4535,0.0297,-0.6165,38.6353,-185.9741,11.5967
-0.5776,-0.1321,-1.1610,46.9971,-178.7720,9.9487
-0.6279,-0.2296,-1.3682,39.9170,-158.1421,2.6855
-0.6664,-0.1479,-1.4259,24.1089,-131.7749,1.0376
-0.6935,-0.0609,-1.2852,3.8452,-107.9102,9.7046
-0.6881,-0.0944,-0.6257,-0.3662,-106.2622,11.1084
-0.6624,-0.0144,-0.5105,5.4321,-119.0796,11.0474
-0.6519,0.0026,-0.4943,13.1836,-128.1738,12.6343
-0.6517,-0.0449,-0.5342,27.3438,-135.9253,12.2681
-0.7147,-0.0610,-0.7802,28.0762,-138.7329,3.3569
-0.7655,-0.0710,-0.9330,16.7847,-131.9580,6.0425
-0.8068,-0.0956,-1.0759,-1.2817,-117.8589,10.6812
-0.8053,-0.1736,-0.9596,-11.1084,-85.9985,13.7329
-0.8013,-0.1350,-0.7921,-6.8359,-75.3174,10.6812
-0.8046,-0.0540,-0.5179,-3.2959,-73.4863,13.6108
-0.7826,-0.0511,-0.2437,-2.8687,-88.0127,18.0664
-0.7548,-0.0176,-0.2761,10.9863,-120.1172,14.5264
-0.7681,-0.0134,-0.3842,23.4985,-128.6621,12.7563
-0.8038,-0.0244,-0.5210,23.3765,-130.0659,10.5591
-0.8578,-0.0125,-0.6316,11.5356,-126.4648,10.9863
-0.9631,-0.0081,-0.8147,-17.5171,-113.7085,20.3857
-0.9854,-0.0607,-0.8442,-27.3438,-99.6094,23.1323
-0.9778,-0.0883,-0.7299,-29.7241,-86.7310,23.6816
-0.9799,-0.0664,-0.5320,-25.0854,-80.0781,20.4468
-0.9700,-0.0305,-0.2083,-8.6060,-89.7827,16.9678
-0.9565,-0.0286,-0.1782,-2.1362,-98.5107,14.2212
-0.9478,-0.0431,-0.2390,-1.7090,-105.7129,11.7187
-0.9537,-0.0696,-0.3928,0.0610,-104.4312,5.6763
-0.9670,-0.0424,-0.4020,-0.7324,-103.2104,5.9204
-0.9872,-0.0427,-0.4813,-12.3901,-100.2197,8.9111
-1.0109,-0.0530,-0.5981,-23.1934,-91.9800,8.9111
-1.0297,-0.0339,-0.4884,-20.6299,-67.7490,12.3901
-1.0244,-0.0557,-0.3385,-20.4468,-64.4531,8.2397
-1.0371,-0.0322,-0.2737,-22.0947,-62.5610,6.5918
-1.0504,-0.0208,-0.2454,-19.5313,-60.6689,5.3101
-1.0448,-0.0546,-0.3416,-8.3008,-58.4106,-1.0376
-1.0377,-0.0862,-0.4086,-9.0942,-50.9033,-8.0566
-1.0311,-0.0879,-0.4399,-14.5874,-42.2974,-16.9678
-1.0422,0.0441,-0.4967,-12.2070,-32.8979,-22.1558
-1.0750,0.1815,-0.4640,-34.1797,-11.4746,4.0283
-1.0819,0.1017,-0.3346,-43.2129,-5.3101,14.4043
-1.0557,-0.0259,-0.1030,-41.6260,-5.3711,20.9961
-0.9463,-0.1393,0.0546,-42.8467,-27.5269,-1.2817
-0.9578,-0.1270,-0.0896,-34.6680,-37.0483,-16.2964
-0.9778,-0.0977,-0.2961,-39.9170,-34.3628,-30.6396
-1.0127,-0.0054,-0.4595,-48.4009,-27.1606,-38.1470
-0.9723,0.0438,-0.4039,-93.3838,-2.2583,-31.7383
-0.9628,0.0424,-0.1426,-74.1577,8.6670,-21.5454
-1.0536,0.0603,-0.4221,-27.4048,-0.9155,-12.6343
-0.9998,-0.0073,-0.4874,205.3833,22.7661,-27.2217
-0.9720,0.3813,0.5262,12.8784,17.0288,23.7427
-1.0092,0.0948,0.0509,-34.7900,-28.2593,54.5044
-1.0615,-0.1141,-0.5509,-20.2637,-9.7046,36.6211
-1.0323,0.0994,-0.6770,-13.5498,21.1182,35.8276
-1.0972,-0.1820,-0.1743,-36.4380,47.5464,53.1006
-1.1372,-0.2897,-0.1119,-24.4141,29.8462,27.8931
-1.1042,-0.2513,-0.1748,-5.2490,14.1602,-0.1221
-0.9904,0.0886,0.0056,15.7471,2.8076,-24.2920
-0.9636,0.1970,0.0802,15.0757,-9.8877,-15.6250
-0.9296,0.2843,-0.0253,11.1084,-20.8130,-1.1597
-0.9252,0.3383,-0.2175,8.0566,-16.2354,21.3013
-1.0122,0.1611,-0.3014,-21.4233,-0.4272,52.6733
-1.0258,0.0466,-0.3558,-35.4614,5.9204,58.3496
-1.0377,-0.0847,-0.4130,-37.3535,14.0381,54.6265
-1.0385,-0.1522,-0.3508,-28.5645,22.8271,38.8184
-0.8887,-0.1764,-0.0870,-3.1738,13.9771,17.6392
-0.8997,-0.2366,-0.4447,-124.4507,29.5410,1.7700
-1.0182,0.2234,-0.3657,-109.2529,68.7256,-5.1270
-0.9841,0.4233,0.1176,-83.3740,40.2222,36.6211
-0.9764,0.2040,-0.3037,-85.0830,24.4751,35.8887
-1.0278,0.2518,-0.2827,-44.6167,20.3247,43.0908
-1.0143,0.1466,-0.4250,-0.3662,15.0146,44.7998
-1.0120,-0.0818,-0.6292,67.1997,80.2612,19.3481
-1.0529,-0.0117,-0.0898,132.0190,85.0830,13.9160
-1.0023,0.0575,-0.0236,183.2886,49.8657,9.6436
-0.9685,0.0203,-0.2904,302.9175,41.4429,-1.6479
-0.9756,0.1040,-0.4280,301.5137,29.1748,-32.8979
-0.9362,0.2419,-0.5527,232.2388,32.5928,-15.1978
-0.9573,0.2753,-0.5774,79.2847,61.7676,20.2637
-1.0133,0.2284,-0.5881,40.3442,67.8711,28.3813
-1.0474,0.1443,-0.5159,88.8672,84.4727,35.6445
-1.0623,0.1067,-0.3326,75.1343,86.3647,42.6025
-1.0266,0.0150,-0.2352,38.8184,84.5947,48.4009
-0.9471,-0.1355,-0.1874,41.9312,81.0547,36.3159
-0.9286,-0.0791,-0.5776,44.1895,65.1245,-8.4839
-0.9543,-0.0856,-0.8212,25.2686,78.4302,-18.4326
-0.9771,-0.0787,-1.0200,36.0107,102.0508,-26.0010
-0.9758,-0.1881,-1.0623,69.0308,147.5220,-56.4575
-1.0400,-0.1086,-1.0396,61.3403,167.0532,-82.1533
-1.1066,0.0427,-1.0750,-7.0801,191.7114,-67.6880
-1.0234,-0.0306,-0.7845,-8.3618,227.0508,-52.9175
-0.8536,0.0338,-0.3563,44.0674,201.2329,-53.7720
-0.8922,0.1138,-0.5601,42.7856,183.0444,-64.0869
-0.8704,0.1821,-0.7549,8.4839,177.6123,-57.6172
-0.8910,0.2180,-0.9119,-60.4858,175.7812,-43.8843
-0.7179,-0.3478,-0.9897,-112.1826,211.9141,-42.6636
-0.7209,-0.4083,-1.0861,-55.6641,223.6938,-75.0122
-0.7535,-0.4518,-1.3165,-9.7046,247.1313,-100.5859
-0.8240,-0.3848,-1.4039,22.5830,280.3345,-124.8169
-0.9502,0.1897,-1.0629,67.9932,305.1147,-95.6421
-0.8416,0.3379,-0.9233,23.6816,316.5894,-34.1797
-0.6964,0.2869,-0.7867,-28.5645,305.3589,-6.4087
-0.3778,0.1399,-0.8064,-25.4517,268.5547,41.2598
-0.2728,-0.2367,-1.0283,32.5928,258.7280,18.2495
-0.2373,-0.3367,-1.1997,62.9883,270.5078,-11.2915
-0.2347,-0.2788,-1.2867,85.2661,273.8037,-26.7944
-0.2252,-0.1285,-1.1541,110.9619,287.4756,-35.0952
-0.1899,-0.0822,-0.9023,132.6294,280.8838,-25.3906
-0.1012,-0.1382,-0.7343,142.1509,253.4180,-35.4004
-0.0190,-0.0698,-0.6289,122.2534,239.3799,-44.8608
0.1676,-0.4578,-0.6135,39.8560,204.6509,-55.0537
0.1868,-0.4105,-0.7419,33.6304,196.1060,-68.7866
0.2394,-0.2413,-0.7832,19.8364,192.1997,-71.8384
0.3292,-0.2886,-0.8391,14.9536,196.3501,-60.9741
0.3571,-0.2266,-0.8232,31.0669,202.9419,-69.3970
0.3613,-0.1268,-0.7383,42.9077,204.8950,-70.4346
0.3717,-0.1265,-0.6392,48.5229,202.4536,-63.5986
0.5144,-0.1929,-0.4375,16.9678,175.3540,-47.6074
0.5697,-0.3256,-0.5051,-10.0708,164.4287,-47.6074
0.5869,-0.3724,-0.5906,-22.1558,159.7290,-53.5889
0.6112,-0.0940,-0.4789,-22.3999,142.8833,-53.1006
0.6401,-0.0941,-0.4679,-24.1089,132.3242,-47.4854
0.6501,-0.1392,-0.5383,-14.7095,127.4414,-45.6543
0.6562,-0.1318,-0.5316,-2.9907,124.8779,-46.0205
0.7159,-0.1296,-0.5121,-22.9492,122.1313,-44.2505
0.7252,-0.1006,-0.4438,-6.8970,122.9248,-46.8140
0.7201,0.0017,-0.3376,-2.2583,118.8354,-43.3960
0.7512,0.0111,-0.3002,-0.3662,104.7363,-35.0952
0.7949,-0.1405,-0.3727,-4.0894,95.3979,-33.6304
0.8098,-0.1802,-0.4384,-9.8267,91.3086,-36.4380
0.8180,-0.1788,-0.5015,-11.9629,94.7266,-41.1987
0.8240,-0.1210,-0.4957,0.3052,98.4497,-41.5039
0.8333,0.0259,-0.4183,23.3154,100.3418,-34.9121
0.8677,-0.0056,-0.3586,18.1274,95.8862,-30.8838
0.8999,-0.0594,-0.3490,7.2632,89.2944,-32.4707
0.9154,-0.0171,-0.3799,-12.5732,84.4116,-36.2549
0.9209,-0.0210,-0.4094,-1.6479,85.2051,-35.1563
0.9043,0.0286,-0.3823,2.6245,88.0737,-33.8745
0.8929,0.0248,-0.3268,0.6104,86.1816,-27.7710
0.9131,-0.0012,-0.2632,9.4604,86.5479,-24.4751
0.9110,0.0181,-0.1219,7.4463,84.4727,-22.2778
0.9165,0.0653,-0.0424,1.1597,74.9512,-19.2871
0.9161,0.0769,-0.1027,-4.0894,68.4814,-16.7847
0.8938,0.1354,-0.0948,1.7700,66.5894,-7.2021
0.8901,0.1431,0.0569,6.5308,62.8662,0.2441
0.8860,0.1089,0.1842,-0.5493,50.8423,4.5166
0.8964,0.0575,0.2303,-6.7139,36.4990,5.9814
0.9000,-0.0327,0.0768,0.3052,15.8691,8.4839
0.9082,-0.0533,0.0436,3.9062,11.8408,8.6060
0.9161,-0.0670,0.0369,5.0659,8.7280,7.1411
0.9268,-0.1443,-0.0740,0.9766,1.8311,0.1831
0.9454,-0.1199,-0.0798,-5.1880,0.8545,-4.6387
0.9648,-0.0461,-0.0540,-9.1553,-2.1362,-6.3477
0.9790,0.0106,-0.0409,-7.9956,-4.2725,-5.4932
0.9899,0.0077,-0.1609,-7.2632,-9.0942,-1.7700
0.9945,-0.0391,-0.2472,-5.4321,-7.2021,-0.4272
1.0020,-0.0575,-0.2677,-0.5493,-2.3804,-1.4648
1.0050,-0.0278,-0.2017,-1.7090,-0.4883,-2.6855
1.0017,0.0001,-0.1990,-0.7935,-1.5259,-3.1738
0.9941,0.0153,-0.1594,-0.1221,0.0000,-1.0986
0.9908,0.0099,-0.1144,-1.0986,-1.4648,-0.7935
0.9854,0.0095,-0.0796,-1.0986,-3.0518,0.5493
0.9861,-0.0039,-0.0536,-7.2021,-11.3525,0.9766
0.9856,-0.0231,-0.0934,-7.1411,-12.4512,0.9155
0.9868,-0.0502,-0.1144,-4.0283,-13.6108,0.6714
0.9906,-0.0869,-0.1868,-4.0894,-15.9302,-2.2583
0.9912,-0.0819,-0.2001,-4.3945,-14.6484,-6.2256
0.9951,-0.0305,-0.1887,-3.4180,-13.6108,-8.2397
0.9943,0.0227,-0.1775,-1.5259,-12.8174,-7.5684
0.9890,0.0498,-0.0703,0.2441,-15.7471,-1.0376
0.9795,0.0265,-0.0602,-4.0283,-21.1792,-1.2817
0.9662,0.0168,-0.0709,-6.4087,-25.7568,-1.2817
0.9591,0.0385,-0.0531,-8.2397,-30.0293,-0.7324
0.9331,0.0776,0.0032,-4.0894,-43.1519,4.3335
0.9175,0.1019,0.0826,1.1597,-53.2227,10.4980
0.9128,0.0621,0.0876,9.5825,-66.6504,14.3433
0.8828,0.0134,-0.0522,9.0942,-74.8291,11.1084
0.8602,0.0531,0.0081,9.2773,-84.8999,17.7002
0.8500,0.1355,0.1936,13.9160,-100.9521,21.8506
0.8296,0.2108,0.3003,15.1367,-123.8403,31.4331
0.7333,0.1161,-0.1775,2.6245,-157.2266,34.3628
0.7047,0.1143,-0.3999,-7.0801,-159.7900,44.4336
0.7330,0.1030,-0.3500,-6.7749,-159.5459,55.7251
0.7316,0.1787,-0.1533,2.5635,-170.2271,63.3545
0.6151,0.2726,0.1688,15.1367,-221.9849,97.9614
0.5176,0.1683,0.1796,24.4141,-254.0283,109.8633
0.4102,0.0446,0.1289,37.8418,-283.6914,115.4175
0.3025,-0.0917,-0.0117,53.1006,-309.5093,116.2109
0.1381,-0.3663,-0.5784,63.5376,-327.3926,90.0879
0.0352,-0.2289,-1.0336,42.3584,-319.1528,78.2471
0.0272,-0.1650,-1.3246,0.7324,-298.4619,87.7075
0.0712,-0.3008,-1.3357,-20.8130,-278.1372,96.6187
0.0635,-0.3944,-0.9655,18.7988,-254.2114,104.0039
0.0153,-0.4307,-0.7341,36.9873,-256.5308,109.1919
-0.0184,-0.6112,-0.7058,53.7720,-269.1650,101.9897
-0.0261,-0.9769,-1.4153,44.3115,-267.2729,54.6265
-0.0425,-0.7238,-1.8501,4.7607,-233.9478,22.8271
-0.0844,-0.3368,-1.9011,-49.3164,-193.1152,30.8838
-0.0789,-0.2891,-1.6493,-72.2046,-160.7056,53.5889
-0.1215,-0.3062,-0.8795,-42.1143,-149.2920,67.5049
-0.1479,-0.2657,-0.6951,-18.9209,-160.8276,78.3691
-0.1366,-0.2681,-0.6438,-7.4463,-175.3540,78.7964
-0.1085,-0.3414,-0.8660,-12.5122,-185.4858,64.4531
-0.1421,-0.6531,-1.5854,-47.0581,-149.4141,19.3481
-0.1710,-0.6057,-1.4799,-50.5371,-122.1313,4.9438
-0.2123,-0.4603,-1.1973,-41.1377,-106.2012,2.5635
-0.2351,-0.2805,-0.6343,-33.9355,-117.9199,6.9580
-0.2705,-0.1678,-0.5482,-39.1846,-135.6201,1.0986
-0.3271,-0.0129,-0.5151,-48.0957,-153.9307,1.9531
-0.3547,0.0342,-0.5677,-50.0488,-170.9595,6.7139
-0.4330,-0.1449,-0.8711,-39.3677,-198.1812,0.4883
-0.4596,-0.2898,-1.1331,-29.3579,-182.3120,4.2725
-0.4943,-0.4791,-1.1184,-44.2505,-169.0674,-3.4790
-0.5312,-0.5519,-1.0308,-60.9131,-165.5884,-19.2261
-0.6182,-0.3734,-0.8904,-50.1099,-150.3296,-29.7241
-0.6189,-0.2585,-0.8185,-35.5225,-146.7896,-33.3862
-0.6393,0.0022,-0.8549,-19.8975,-146.3013,-34.6680
-0.6747,0.3088,-0.9635,-12.2070,-144.5312,-25.9399
-0.7126,0.2275,-0.8771,-19.7754,-133.5449,17.8223
-0.7344,0.0493,-0.8252,-29.9683,-137.6953,24.6582
-0.7572,-0.0779,-0.8555,-32.2266,-137.6953,32.2876
-0.7540,-0.3601,-0.9432,-14.0381,-122.6196,22.9492
-0.7455,-0.3749,-0.9177,-12.0239,-113.2813,11.2305
-0.7483,-0.3373,-0.9183,-12.7563,-105.4077,-1.0986
-0.7570,-0.2728,-0.8969,-17.8223,-94.4824,-7.8125
-0.7897,-0.0295,-0.6678,-6.7139,-82.5806,-8.8501
-0.8035,0.0377,-0.4843,-5.7373,-85.5103,0.9155
-0.8101,0.0012,-0.3619,-8.8501,-96.5576,5.8594
-0.8113,-0.0177,-0.3728,-11.2915,-108.9478,5.5542
-0.8397,-0.0442,-0.6693,-15.9912,-115.6616,6.2866
-0.8660,-0.0675,-0.7510,-16.8457,-109.0088,6.5308
-0.8640,-0.1122,-0.7386,-19.2871,-100.8301,9.6436
-0.8578,-0.1770,-0.6998,-18.7378,-94.2383,8.2397
-0.8905,-0.1614,-0.6041,-18.8599,-86.1206,-2.0142
-0.9160,-0.1277,-0.5421,-19.4092,-84.1064,-2.3193
-0.9517,-0.0814,-0.4482,-22.1558,-85.7544,-4.3335
-0.9917,0.0312,-0.3191,-23.9258,-104.7363,-1.0376
-1.0052,0.1105,-0.4565,-17.6392,-107.0557,8.1787
-0.9991,0.1156,-0.5996,-15.1978,-101.3184,16.2964
-0.9919,0.0588,-0.7557,-19.5923,-93.3838,18.3105
-1.0244,-0.0898,-0.9354,-28.2593,-56.1523,15.5029
-1.0098,-0.2236,-0.8629,-31.5552,-35.5835,7.5684
-1.0396,-0.2505,-0.7382,-23.6816,-19.1650,-3.4790
-1.0575,-0.2008,-0.5815,-3.3569,-7.0190,-1.7090
-0.9922,-0.1107,-0.2463,12.0850,-6.4697,-9.9487
-0.9768,-0.0002,-0.2463,8.6060,-16.6016,-10.1318
-0.9674,0.0743,-0.3356,8.1177,-21.4844,-7.3242
-0.9520,0.1069,-0.4093,7.6294,-22.3999,-0.4272
-0.9192,-0.0607,-0.6393,-9.2163,-14.5874,8.3008
-0.9232,-0.1313,-0.6740,-11.2915,-2.4414,7.5684
-0.9319,-0.1635,-0.5928,-7.5073,10.5591,5.6152
-0.9471,-0.1545,-0.2146,3.9673,13.0615,0.0000
-0.9315,-0.1210,-0.1223,5.0049,2.8687,-3.4790
-0.9215,-0.0597,-0.1860,6.2866,-7.4463,-4.8218
-0.9146,-0.0234,-0.3108,10.2539,-11.2305,-0.9766
-0.8976,-0.0063,-0.4642,2.8076,-10.3149,0.7324
-0.9100,0.0035,-0.5443,-3.4790,-6.8970,3.1738
-0.9451,0.0149,-0.5803,-6.9580,1.3428,6.0425
-0.9738,-0.0173,-0.4877,-10.3149,9.0332,12.7563
-0.9691,-0.1433,-0.1869,-4.9438,3.4180,11.1084
-0.9528,-0.1299,-0.1871,0.0000,-4.2114,7.4463
-0.9437,-0.1068,-0.2581,3.1128,-8.6060,3.9062
-0.9420,-0.0804,-0.3539,6.0425,-10.5591,1.9531
-0.9340,-0.0585,-0.5073,3.9062,-4.2725,-1.0986
-0.9525,-0.0110,-0.5177,-0.5493,1.7090,-0.0610
-0.9686,0.0137,-0.4628,-3.9673,6.3477,5.3711
-0.9666,-0.0048,-0.2970,-3.1738,6.7139,13.9771
-0.9413,-0.0697,-0.2396,1.0376,2.6245,14.3433
-0.9280,-0.0996,-0.2526,2.0752,-2.0142,8.6670
-0.9250,-0.0859,-0.3019,3.9673,-4.8218,5.8594
-0.9161,-0.0675,-0.3824,0.2441,-6.4087,2.1362
-0.9203,-0.0436,-0.4470,-1.5869,-3.9062,0.7324
-0.9291,-0.0244,-0.4780,-4.5166,0.1221,2.0752
-0.9368,-0.0424,-0.4647,-5.1270,5.0659,4.8218
-0.9518,-0.0542,-0.3387,3.4180,10.4980,6.4087
-0.9543,-0.0354,-0.2482,3.3569,7.3242,7.5684
-0.9492,-0.0344,-0.2258,3.6011,1.1597,7.5684
-0.9465,-0.0302,-0.2583,2.9297,-3.4180,6.4087
-0.9324,-0.0773,-0.3770,-0.2441,-6.9580,3.5400
-0.9326,-0.0714,-0.4537,-1.0986,-4.0894,0.9155
-0.9364,-0.0487,-0.4983,0.1221,1.5259,-0.5493
-0.9603,0.0009,-0.4390,1.8311,10.1929,1.6479
-0.9708,0.0017,-0.3573,7.2632,11.8408,5.4321
-0.9653,-0.0160,-0.2509,11.8408,8.9722,7.2021
-0.9420,-0.0428,-0.1882,13.3057,2.3193,7.2632
-0.9182,-0.0334,-0.3434,8.1787,-6.5308,1.6479
-0.9229,-0.0155,-0.4481,4.2114,-3.9062,0.8545
-0.9293,-0.0200,-0.5037,1.7700,1.1597,2.0752
-0.9590,-0.0161,-0.5221,1.7090,12.6953,1.2207
-0.9728,-0.0135,-0.5232,2.3193,18.2495,2.6855
-0.9862,-0.0256,-0.5272,1.0376,24.1699,2.5024
-1.0060,-0.0178,-0.5492,0.8545,29.9072,3.4790
-1.0405,0.0234,-0.6686,7.6294,46.4478,6.5308
-1.0419,0.0337,-0.6752,9.0942,58.6548,10.0708
-1.0270,-0.0009,-0.6296,9.8267,67.5659,11.9629
-1.0131,-0.0309,-0.6304,8.4839,73.2422,9.3994
-0.9998,-0.0380,-0.7853,2.5635,90.6982,0.3662
-1.0054,-0.0280,-0.8629,-1.7090,104.2480,-1.8921
-1.0051,-0.0293,-0.9103,-2.0142,119.8120,-1.4038
-1.0081,-0.0275,-0.9213,-4.0283,136.6577,-2.1973
-1.0192,-0.0551,-0.7495,-16.3574,159.5459,-3.2349
-1.0211,-0.0354,-0.5847,-16.5405,162.6587,0.0610
-0.9878,-0.0892,-0.4200,-9.8877,157.6538,2.8687
-0.8750,-0.1115,-0.4659,3.6621,136.6577,-4.6387
-0.8276,-0.0793,-0.6387,5.1880,133.9722,-9.3384
-0.8069,-0.0106,-0.8127,5.6152,138.6719,-11.2915
-0.8069,0.0535,-0.9011,13.6108,148.0103,-8.3008
-0.8112,0.0808,-0.8573,4.3945,158.8135,-1.4038
-0.8175,0.0453,-0.8093,-6.7749,159.8511,3.4180
-0.8079,-0.0179,-0.7323,-11.4136,160.0952,12.4512
-0.7567,-0.1129,-0.6974,-11.7187,153.3813,13.2446
-0.6892,-0.0071,-0.7882,-11.8408,149.2310,6.3477
-0.6469,0.0756,-0.8292,-12.6953,147.7051,8.7891
-0.6027,0.0956,-0.9250,-13.1836,148.1323,14.2212
-0.5892,0.0493,-1.0428,-12.3291,154.4800,18.4937
-0.5623,0.0018,-1.2506,11.0474,177.1851,25.5127
-0.5778,-0.0553,-1.2180,26.9165,194.3970,22.8882
-0.5959,-0.1066,-1.0544,36.8042,203.3081,22.5830
-0.4998,-0.0538,-0.7855,37.1704,194.7021,11.4136
-0.4183,0.0333,-0.8516,37.1094,185.9741,11.3525
-0.3760,0.0741,-0.9453,24.7803,185.9131,14.2212
-0.3502,0.0594,-0.9279,20.3247,185.6689,20.4468
-0.2632,-0.0697,-0.9073,17.8223,181.7017,19.8975
-0.2252,-0.1327,-0.9591,9.5215,179.1382,16.4795
-0.1876,-0.1531,-0.9946,3.0518,182.5562,8.2397
-0.1747,-0.1337,-0.9714,1.2817,183.0444,4.5166
-0.1127,-0.2184,-0.9380,6.4697,183.5937,-4.6997
-0.0649,-0.1080,-0.8627,14.1602,182.0068,-9.6436
0.0029,0.0244,-0.8335,19.7754,177.2461,-7.9346
0.0547,0.0654,-0.8689,13.9771,173.8892,-2.4414
0.1090,-0.2428,-0.8781,11.0474,167.3584,-7.9956
0.1174,-0.2015,-0.9021,7.5684,169.6777,-17.2729
0.1217,-0.0887,-0.8956,-1.0376,169.4336,-15.1978
0.2245,-0.1058,-0.7561,-4.5166,163.2690,-10.8643
0.2860,-0.1084,-0.7078,-0.6714,153.8086,-13.7329
0.3311,-0.1156,-0.7448,4.0894,146.1182,-20.2026
0.3488,-0.1405,-0.8485,11.1084,142.9443,-24.1089
0.3589,-0.1876,-0.9952,6.3477,156.5552,-35.5835
0.3707,-0.0929,-0.9424,-0.4272,161.3159,-36.9263
0.4111,-0.0663,-0.9260,-1.2207,164.9170,-33.5083
0.4667,-0.0731,-0.8973,-4.6387,170.8374,-38.7573
0.4999,-0.0454,-0.8812,1.4038,177.6733,-36.2549
0.4989,0.0190,-0.7075,-5.5542,180.1758,-33.5083
0.5232,0.1136,-0.4514,-9.6436,162.9639,-21.9116
0.6019,0.0746,-0.3617,-7.7515,142.0288,-11.7798
0.6763,0.0118,-0.6094,-7.9346,116.4551,-13.7939
0.6771,-0.0680,-0.7556,-6.0425,118.2251,-16.4795
0.6743,-0.1194,-0.7917,0.6714,124.8169,-21.1182
0.7157,0.0420,-0.4784,-14.5874,127.9297,-32.7148
0.7372,0.1229,-0.2812,-21.5454,114.0137,-26.3672
0.7770,0.1427,-0.2345,-12.4512,100.2197,-18.0054
0.7898,0.1488,-0.3055,-10.3760,88.1958,-13.6719
0.7939,0.0364,-0.5909,-5.4932,84.5947,-9.8877
0.8037,0.0718,-0.6123,0.0610,89.2334,-11.5356
0.8104,0.0959,-0.5272,-4.2114,92.8955,-12.2070
0.8245,0.0555,-0.4640,-6.5918,88.5620,-11.5967
0.8264,0.1178,-0.4982,2.8687,84.1064,-6.1646
0.8262,0.0963,-0.5736,5.0049,86.3037,-2.2583
0.8301,0.0714,-0.5490,6.5308,91.7969,-1.8921
0.8429,0.0879,-0.4254,12.5122,91.7969,2.2583
0.8711,0.0552,-0.2158,15.1367,77.6978,6.8359
0.8696,-0.0084,-0.2133,12.7563,68.9697,7.3242
0.8701,-0.0657,-0.2594,4.3945,63.1714,1.8921
0.8811,0.0356,-0.1899,-9.0332,58.4106,-0.1831
0.9064,0.0151,-0.1324,-10.4980,51.2085,0.2441
0.9078,0.0042,-0.1641,-5.9814,45.8984,-1.0986
0.9030,0.0073,-0.1698,-0.0610,44.0063,-2.0752
0.9067,0.0933,-0.0486,5.0659,31.7993,1.7700
0.9139,0.1055,-0.0294,6.4087,23.6206,5.7373
0.9120,0.0818,-0.0919,9.3994,16.8457,6.4087
0.9091,0.0337,-0.1769,7.7515,14.0381,6.6528
0.9263,-0.0570,-0.3153,-0.4272,15.1367,-0.6104
0.9374,-0.0675,-0.3428,-0.5493,18.7378,-4.6387
0.9520,-0.0217,-0.2875,-0.9766,20.2637,-7.0801
0.9797,0.0649,-0.2183,2.5024,13.6108,-3.7231
0.9669,0.1160,-0.2051,6.4087,12.1460,0.5493
0.9636,0.1155,-0.1934,9.9487,6.9580,8.1177
0.9674,0.0612,-0.2195,10.7422,3.9673,10.8643
0.9677,-0.0490,-0.2584,7.6904,-1.0986,9.6436
0.9629,-0.1108,-0.3389,4.6997,2.5024,3.6621
0.9609,-0.1256,-0.3499,-0.7935,6.7139,-3.2349
0.9619,-0.0416,-0.2280,-1.7090,10.0708,-10.9253
0.9652,0.0530,-0.1626,-1.8311,5.0659,-8.1177
0.9719,0.1089,-0.1281,0.0610,0.4272,-4.0894
0.9711,0.1243,-0.1128,3.6011,-6.1035,0.9766
0.9554,0.0178,-0.2872,-1.0986,-12.5122,2.0752
0.9565,-0.0063,-0.3738,-1.7090,-8.1787,-0.6714
0.9613,-0.0115,-0.3796,-0.1831,-1.4648,-3.4180
0.9668,0.0033,-0.3040,1.2207,1.7700,-5.4321
0.9717,0.0320,-0.2201,3.6621,-2.3804,-4.0894
0.9670,0.0310,-0.2107,1.0376,-5.2490,-3.4790
0.9583,0.0344,-0.2091,1.7700,-8.7280,-1.4648
0.9557,0.0269,-0.2220,3.7231,-11.5356,0.9766
0.9598,0.0328,-0.2719,-4.8828,-15.0146,-0.7324
0.9584,0.0304,-0.3182,-5.1270,-13.5498,-2.0752
0.9556,0.0298,-0.3323,-3.2349,-11.1084,-3.1738
0.9615,0.0378,-0.2635,1.7090,-9.0942,-3.8452
0.9540,0.0270,-0.2745,1.8921,-11.5967,-3.0518
0.9413,0.0151,-0.3437,2.1362,-10.4980,-3.7231
0.9374,0.0414,-0.3208,1.7090,-7.7515,-2.3193
0.9401,0.0634,-0.2048,-1.8921,-12.7563,-2.0142
0.9338,0.0802,-0.1943,-5.0049,-16.9678,-1.8921
0.9265,0.0936,-0.1993,-5.4321,-20.3857,-0.4272
0.9194,0.1053,-0.1619,-0.3662,-22.8271,2.9907
0.8920,-0.0110,-0.1459,6.5308,-32.5317,5.7983
0.8816,-0.0923,-0.1238,9.5215,-36.0718,3.7231
0.8705,-0.1260,-0.0834,13.8550,-42.1143,-0.9155
0.8451,-0.0366,-0.0669,9.0942,-50.3540,-5.1880
0.8420,0.0845,-0.0127,-3.0518,-73.0591,5.0049
0.8431,0.2042,0.1567,3.1738,-89.4775,14.1602
0.8291,0.3496,0.3849,6.1646,-116.4551,30.0903
0.7557,0.4489,0.6909,36.3770,-195.8618,65.1245
0.6602,0.2877,0.4617,51.6968,-239.0137,74.7681
0.5187,-0.2113,-0.4038,52.7344,-258.4839,69.9463
0.4154,-0.6379,-1.3478,47.3022,-225.1587,42.7246
0.5754,-0.3979,-0.9473,18.8599,-150.8179,8.9111
0.6400,-0.1108,-0.4736,16.5405,-164.3677,6.4697
0.6013,0.1847,-0.2679,13.4277,-186.7065,19.1040
0.5535,0.3250,-0.1671,10.0708,-211.9141,42.7856
0.4972,0.3644,-0.2205,22.9492,-260.2539,64.8193
0.3890,0.3411,-0.4376,31.6162,-276.7944,72.5708
0.2610,0.1625,-0.8724,33.5693,-279.6631,74.5239
0.1604,-0.1058,-1.4568,28.8086,-261.1694,72.8149
0.1326,-0.7430,-2.0225,12.5732,-162.9028,60.3638
0.2197,-0.7776,-1.6515,5.0049,-121.8262,38.4521
0.2750,-0.6172,-1.1115,1.7090,-114.3799,21.9116
0.2638,-0.4170,-0.4869,-7.3242,-150.0854,9.7656
0.2515,-0.2589,-0.3722,0.3052,-178.3447,5.1880
0.2277,0.1510,-0.4310,9.2163,-201.9043,5.6152
0.1771,0.5837,-0.6680,1.4648,-218.9941,23.1323
0.0280,-0.0168,-1.3300,-42.2363,-202.9419,49.1943
-0.0549,-0.3647,-1.5363,-24.7192,-181.3965,42.2363
-0.0868,-0.5942,-1.6902,-13.1836,-151.1230,36.8652
-0.0797,-0.4912,-1.3904,-26.6724,-101.6846,10.6812
-0.0934,-0.2849,-1.0850,-28.2593,-98.2666,7.9346
-0.0745,-0.1899,-0.8490,-31.3721,-105.4688,8.9722
-0.0648,-0.1388,-0.7307,-33.8745,-118.7134,4.1504
-0.1305,0.1599,-0.5767,-27.0996,-151.3062,14.0991
-0.1431,0.0817,-0.5416,-15.7471,-171.6919,18.7378
-0.1814,-0.0563,-0.7620,-0.6714,-188.2935,16.6626
-0.2267,-0.2378,-1.3046,-5.6152,-183.5327,13.6108
-0.3184,-0.3330,-1.6498,-58.4106,-111.4502,0.0610
-0.3372,-0.3516,-1.2759,-54.9316,-93.9941,-3.9673
-0.3527,-0.3853,-0.9111,-38.8184,-94.4824,-14.6484
-0.3774,-0.3140,-0.6387,-22.7051,-105.0415,-23.4375
-0.4202,0.1820,-0.2830,-3.1128,-152.1606,-25.6958
-0.4396,0.5245,-0.4017,7.1411,-183.0444,-13.6108
-0.4648,0.5519,-0.6232,9.7656,-197.8760,7.8735
-0.5812,-0.0029,-1.3278,9.7046,-191.5894,21.3623
-0.6349,-0.1749,-1.6417,-10.3149,-161.9263,22.3999
-0.6636,-0.2628,-1.6663,-27.1606,-126.9531,23.6816
-0.6680,-0.3077,-1.4060,-20.8130,-97.5342,19.4702
-0.6820,-0.1868,-0.8058,6.7139,-88.6230,10.3760
-0.6506,-0.1625,-0.6478,10.0708,-95.2759,6.4697
-0.6351,-0.1245,-0.5375,5.5542,-103.7598,-0.1221
-0.6404,-0.0457,-0.4518,1.3428,-115.5396,-5.6763
-0.6528,0.1980,-0.4969,8.0566,-138.4888,8.4839
-0.6727,0.1538,-0.5042,20.9961,-144.6533,17.3950
-0.7092,0.0907,-0.5165,29.5410,-151.7944,19.8975
-0.8179,-0.0645,-0.8562,16.6626,-156.7993,31.9214
-0.8370,-0.1742,-1.0850,-3.2959,-147.7051,32.8369
-0.8312,-0.2535,-1.1964,-10.6201,-125.0000,27.7100
-0.8494,-0.3004,-1.0875,4.3335,-102.0508,19.6533
-0.9041,-0.2723,-0.6077,15.4419,-90.5151,5.1880
-0.9015,-0.2610,-0.4340,13.6108,-96.8628,-4.5776
-0.9050,-0.1648,-0.3959,14.6484,-108.3374,-17.9443
-0.9192,0.0526,-0.5052,18.6768,-112.5488,-20.9351
-0.9277,0.1996,-0.6140,15.1367,-112.3047,-5.1880
-0.9402,0.1725,-0.6547,4.7607,-107.9712,5.6152
-0.9554,0.0862,-0.7206,-10.4980,-105.7739,12.7563
-0.9886,-0.0115,-0.8241,-23.8647,-99.4263,18.6768
-0.9886,-0.2073,-0.9249,-21.9116,-67.3218,12.5122
-0.9913,-0.2388,-0.7294,-16.4795,-53.2227,9.7046
-0.9642,-0.2729,-0.5168,-8.2397,-51.3916,1.4648
-0.9271,-0.1334,-0.3795,-6.4697,-53.5278,-17.9443
-0.9319,0.0123,-0.4453,-3.4790,-54.4434,-21.4844
-0.9423,0.1547,-0.5638,-2.2583,-50.5981,-16.0522
-0.9487,0.1868,-0.6284,-10.5591,-43.5791,-7.2021
-0.9657,0.0548,-0.7172,-28.0762,-26.5503,5.6152
-0.9708,-0.0337,-0.7261,-31.6162,-14.8926,6.9580
-0.9877,-0.0878,-0.6382,-28.9917,-2.6245,7.5073
-0.9890,-0.1456,-0.4382,-21.9116,3.3569,7.2632
-0.9423,-0.1663,-0.1086,-11.2915,-10.8032,-3.1738
-0.9114,-0.1334,-0.1528,-6.0425,-20.5688,-8.9111
-0.8965,-0.0784,-0.2776,-4.9438,-26.4282,-13.1226
-0.9156,0.0604,-0.5801,-9.1553,-21.6675,-11.3525
-0.9324,0.0764,-0.6511,-16.8457,-13.3667,-5.0659
-0.9673,0.0607,-0.6802,-24.2920,-3.6011,-0.4272
-0.9937,0.0321,-0.5895,-21.1182,9.1553,8.3008
-0.9750,-0.1091,-0.1727,-8.3618,10.3149,10.1318
-0.9347,-0.0852,-0.1510,-4.2114,0.5493,7.4463
-0.9097,-0.0447,-0.2034,0.7935,-4.3945,3.4790
-0.8964,-0.0322,-0.2311,0.4883,-9.8877,2.7466
-0.9066,-0.0242,-0.4418,-2.8687,-13.9160,0.1831
-0.9132,-0.0201,-0.5621,-4.4556,-7.3853,1.1597
-0.9252,-0.0110,-0.6266,-7.7515,2.0142,3.1128
-0.9575,-0.0336,-0.4174,-6.3477,19.2871,7.6294
-0.9609,-0.0481,-0.2063,-4.9438,14.8926,7.2632
-0.9409,-0.0643,-0.1141,-3.1128,4.6387,5.6152
-0.9222,-0.0756,-0.1638,-1.4038,-3.8452,1.4038
-0.9153,-0.0421,-0.3995,4.3335,-7.3242,-4.6387
-0.9242,0.0210,-0.4801,2.3804,-3.5400,-4.8828
-0.9391,0.0626,-0.5350,0.1831,1.6479,-0.1221
-0.9458,0.0344,-0.5198,-4.1504,8.2397,3.4790
-0.9578,-0.0269,-0.3842,-7.3242,13.1226,4.9438
-0.9543,-0.0533,-0.2974,-4.6997,11.5967,5.6763
-0.9404,-0.0800,-0.2354,-0.1221,7.2021,4.4556
-0.9313,-0.0725,-0.2078,3.8452,1.8311,0.7935
-0.9218,0.0010,-0.3119,9.3384,-7.7515,-1.7090
-0.9231,0.0122,-0.3793,5.5542,-8.3618,-1.8921
-0.9320,0.0114,-0.4687,0.8545,-7.6904,-0.4272
-0.9513,-0.0427,-0.5581,-4.3945,6.5308,0.5493
-0.9620,-0.0408,-0.4916,-4.0894,12.0239,0.1221
-0.9716,-0.0161,-0.3959,-2.1973,14.0991,-0.1831
-0.9733,0.0000,-0.2998,1.1597,12.5732,1.5869
-0.9379,-0.0237,-0.2833,2.1973,3.4180,0.9766
-0.9352,-0.0393,-0.3568,2.0752,0.8545,-1.8311
-0.9398,-0.0153,-0.4541,2.0142,2.3804,-3.8452
-0.9491,0.0122,-0.5475,-1.7090,6.7749,-3.7842
-0.9733,0.0227,-0.6871,-7.2021,25.0244,-0.8545
-0.9880,0.0095,-0.7034,-7.6294,37.2925,0.6714
-1.0001,-0.0020,-0.6890,-7.9346,48.7061,1.3428
-1.0137,0.0161,-0.6570,-3.8452,59.1431,3.1738
-1.0400,0.0491,-0.5829,-0.6714,75.0122,11.4746
-1.0288,0.0314,-0.5444,3.0518,78.1860,14.7095
-1.0103,0.0118,-0.5447,0.8545,79.5288,15.6860
-0.9550,-0.0211,-0.6964,-4.2114,86.1816,10.2539
-0.9298,-0.0042,-0.8501,-5.8594,97.3511,5.6763
-0.9027,0.0171,-1.0322,-9.0332,115.1733,2.9907
-0.9031,0.0411,-1.1670,-10.2539,140.4419,0.6104
-1.0244,0.0748,-0.9847,-7.9346,184.9976,8.8501
-1.0603,0.0082,-0.7256,-7.6904,190.2466,19.1040
-1.0103,-0.0885,-0.5232,-3.7842,188.9038,20.6909
-0.9381,-0.1364,-0.4109,-6.1035,182.0679,15.2588
-0.7815,-0.1085,-0.5547,-6.4697,160.7056,1.5259
-0.7354,-0.0608,-0.7881,-14.9536,162.1704,-7.0801
-0.7213,0.0111,-0.9600,-21.9727,169.1895,-8.7280
-0.7294,-0.0006,-1.0898,-30.2124,187.0117,-3.6621
-0.7351,-0.0146,-1.0682,-27.8320,196.0449,-1.2207
-0.7477,-0.0044,-1.0142,-20.3857,203.1860,0.0000
-0.7789,0.0903,-0.9122,-5.5542,204.9561,6.3477
-0.6899,0.0117,-0.8125,-1.0986,194.8853,22.2168
-0.6323,-0.0337,-0.8293,-4.0894,191.4673,18.9209
-0.5750,0.0012,-0.8597,-5.4321,187.4390,15.3198
-0.5267,0.1224,-0.8997,-2.1362,183.8379,13.9771
-0.4407,0.1643,-1.0925,6.3477,181.8237,30.1514
-0.4177,0.0725,-1.1985,10.1318,190.3076,30.3955
-0.3961,-0.0403,-1.2382,17.5171,200.8057,31.4941
-0.3782,-0.0953,-1.1799,23.9258,222.7783,6.7139
-0.3876,0.0555,-0.9866,19.6533,223.7549,7.3242
-0.3481,0.0759,-0.7787,12.0850,213.8672,13.7939
-0.2544,0.0626,-0.5955,4.6387,198.2422,16.5405
-0.0317,0.1167,-0.6189,-8.3618,157.4707,19.0430
0.0248,0.1144,-0.7931,-12.5732,144.7754,21.2402
0.0630,0.0024,-0.9851,-11.2305,141.7847,23.1934
0.0980,-0.1622,-1.0966,-9.3384,148.8647,13.4277
0.0756,-0.0861,-1.2649,3.4790,171.0815,-8.3618
0.0334,-0.0231,-1.1530,0.2441,182.8003,-9.5215
0.0929,-0.0259,-0.8757,1.9531,182.3730,-7.7515
0.2209,0.1204,-0.5078,2.4414,151.4893,-4.6997
0.2888,0.1024,-0.5096,-1.7090,131.8970,-0.7935
0.3252,0.0653,-0.6311,-5.4321,116.0278,-2.3193
0.3396,-0.0167,-0.8518,-9.4604,109.9243,-2.2583
0.3601,-0.1498,-1.1572,0.9155,132.5073,-20.6299
0.3588,-0.0953,-1.1156,10.1318,145.3857,-25.6348
0.3525,-0.0282,-1.0070,13.3057,154.5410,-29.5410
0.3488,0.0997,-0.8069,11.0474,155.5176,-28.4424
0.4418,0.0442,-0.5842,9.0332,134.9487,-12.4512
0.4810,0.0643,-0.6133,20.5688,129.5166,-13.3057
0.4996,0.0789,-0.6825,16.1743,123.7793,-11.7798
0.5211,0.0455,-0.7703,7.7515,123.5962,-13.6719
0.5516,0.0057,-0.8054,4.3945,131.8970,-18.9209
0.5508,0.0118,-0.8634,7.4463,140.4419,-21.8506
0.5558,0.0417,-0.7832,5.4932,150.6348,-22.9492
0.6061,0.1165,-0.4998,15.2588,146.7285,-20.9961
0.6353,0.1855,-0.4094,14.3433,138.9771,-19.9585
0.6653,0.1882,-0.4032,11.4136,128.2959,-15.9302
0.6841,0.1726,-0.4491,16.0522,124.0845,-12.8174
0.7180,0.1322,-0.4731,10.2539,114.5630,-6.2256
0.7319,0.0677,-0.4971,0.3052,115.1733,-10.3149
0.7526,0.0143,-0.4924,-2.6855,116.0889,-13.6719
0.7659,0.0004,-0.5133,-2.9907,118.5303,-20.3857
0.7767,0.0691,-0.3759,1.3428,120.6665,-15.5640
0.8079,0.1357,-0.2458,0.2441,114.5020,-10.4980
0.8389,0.1603,-0.1678,1.2207,103.1494,-6.1646
0.8611,0.1385,-0.1628,-1.2207,91.1255,-4.1504
0.8765,0.1187,-0.2603,1.4038,78.1250,-0.5493
0.8966,0.1146,-0.2533,-1.8311,74.4019,0.0610
0.9092,0.1199,-0.1942,0.3662,71.1060,0.5493
0.9111,0.0775,-0.0959,4.3945,50.2319,7.6294
0.9270,0.0259,-0.1045,8.7280,39.9170,7.7515
0.9493,0.0126,-0.0763,6.5918,30.7007,4.3945
0.9581,0.0433,-0.0726,3.5400,21.0571,0.1831
0.9440,0.1002,-0.1621,0.2441,7.0801,-0.4272
0.9349,0.0907,-0.2478,-1.4038,6.4087,-1.3428
0.9288,0.0825,-0.2690,-2.5024,5.1270,-0.4272
0.9481,0.0424,-0.2487,2.3804,-1.0986,-2.7466
0.9465,0.0917,-0.2958,4.9438,-4.5166,-5.1880
0.9421,0.1266,-0.3292,9.3994,-4.0283,-2.5024
0.9464,0.1180,-0.3132,12.0239,-5.8594,-0.3662
0.9513,0.0469,-0.4756,1.8311,-2.8687,-4.8218
0.9546,0.0629,-0.4854,3.3569,2.9297,-7.3242
0.9547,0.0969,-0.4432,4.7607,8.1177,-7.6294
0.9548,0.1106,-0.3788,3.2959,9.5215,-7.7515
0.9464,0.1498,-0.2139,2.1973,5.3711,-4.2114
0.9496,0.1483,-0.1786,0.9766,-3.1738,-1.2207
0.9412,0.1432,-0.2185,0.5493,-8.3618,0.6104
0.9304,0.0959,-0.3053,0.6104,-11.2915,2.6245
0.9286,0.0308,-0.4661,4.1504,1.9531,-1.4038
0.9418,0.0409,-0.3601,6.8970,5.6152,-2.6855
0.9465,0.0460,-0.3160,5.9204,4.5776,-5.1270
0.9368,0.1050,-0.3193,5.3101,5.3101,-6.7139
0.9454,0.1238,-0.2507,4.3335,3.0518,-4.0283
0.9569,0.1335,-0.1880,0.0610,-2.5024,-1.4038
0.9562,0.1388,-0.1970,-2.2583,-9.0332,-0.3052
0.9319,0.0972,-0.3274,-3.7231,-12.7563,4.3335
0.9266,0.0344,-0.4270,-5.3711,-9.9487,2.4414
0.9257,0.0009,-0.4924,-4.8828,-2.2583,-1.2817
0.9320,0.0065,-0.4426,-1.7700,5.1880,-4.2725
0.9413,0.0864,-0.2705,5.3101,5.9814,-4.9438
0.9409,0.1046,-0.1968,7.5073,0.7324,-2.6245
0.9379,0.1268,-0.1754,9.7046,-5.4932,0.4272
0.9348,0.1284,-0.1785,10.2539,-10.1929,3.4180
0.9199,0.0337,-0.3593,-1.0986,-14.7705,2.1362
0.9211,-0.0023,-0.4756,-0.2441,-7.8125,-1.2817
0.9285,0.0138,-0.4592,1.1597,-0.2441,-5.0049
0.9491,0.1067,-0.2468,0.0000,-1.6479,-6.2256
0.9456,0.1394,-0.2065,0.7935,-6.7139,-4.5776
0.9363,0.1555,-0.2186,-1.4038,-12.1460,-1.8921
0.9349,0.1525,-0.2482,-0.4272,-15.3198,1.2207
0.9246,0.0812,-0.3182,0.9766,-18.1885,3.2349
0.9189,0.0433,-0.3464,0.6714,-17.3950,1.9531
0.9135,0.0240,-0.3252,2.0752,-16.7847,0.0000
0.9067,0.0310,-0.2698,3.9673,-18.3716,-1.8921
0.9001,0.0298,-0.1550,10.3760,-30.0903,-2.1973
0.8854,0.0657,-0.0828,14.1602,-39.4287,-2.3804
0.8695,0.1405,0.0525,15.0146,-54.5654,3.2959
0.8579,0.1849,0.1780,20.5078,-77.6367,13.4277
0.8135,0.3131,0.2556,16.4185,-131.2256,28.8696
0.7740,0.3256,0.1667,9.0942,-157.8369,35.7666
0.7168,0.2655,-0.0387,-1.7090,-176.9409,38.6963
0.6560,-0.0171,-0.5222,13.7329,-184.6924,36.0107
0.6428,-0.0995,-0.6514,22.7661,-176.3306,29.9683
0.6530,-0.1681,-0.5614,25.1465,-168.0298,23.8647
0.6566,-0.2355,-0.3434,34.7290,-173.8892,16.2354
0.5934,-0.2157,-0.1042,66.8945,-211.1206,-0.5493
0.5359,-0.0710,-0.0947,71.7773,-236.4502,-7.3242
0.4120,0.2368,-0.2512,65.3076,-260.0708,-7.6904
0.2800,0.5742,-0.4991,47.2412,-276.1841,17.7002
0.1868,0.5101,-0.7787,16.7847,-283.2642,82.2144
0.1342,0.2338,-0.8070,24.5361,-281.0669,98.6938
0.0742,-0.0529,-0.8481,40.9546,-280.0903,99.7925
0.0201,-0.2782,-0.9561,50.9644,-276.7334,89.4165
-0.0205,-0.4486,-1.1582,52.9175,-261.9019,58.3496
-0.0453,-0.4644,-1.3817,45.4102,-250.8545,42.8467
-0.0656,-0.4053,-1.5406,22.5830,-227.4780,33.3862
-0.0676,-0.2318,-1.3379,-30.3955,-188.2935,22.8271
-0.1146,-0.0516,-1.1643,-45.8374,-181.2134,30.5786
-0.1162,-0.0623,-1.0214,-44.4946,-180.6641,42.1143
-0.1313,-0.0986,-0.9601,-31.4331,-185.3638,40.4053
-0.1792,-0.2057,-0.9891,-12.3291,-192.0776,35.8276
-0.2036,-0.2750,-1.1504,-5.0659,-188.9648,23.7427
-0.2120,-0.2592,-1.2823,-10.7422,-175.3540,11.9629
-0.2216,-0.2056,-1.3445,-24.1699,-159.6069,4.6387
-0.3044,-0.1301,-1.1871,-37.1704,-136.1084,6.1646
-0.3218,-0.2170,-1.0190,-41.0767,-132.8125,6.7139
-0.3481,-0.2882,-0.8567,-38.8184,-137.8784,-3.3569
-0.3888,-0.2345,-0.7526,-31.6772,-147.2168,-12.8784
-0.3997,-0.1379,-0.6782,-17.2729,-170.1660,-27.2217
-0.4318,-0.0336,-0.8667,-20.5078,-177.7344,-38.3911
-0.5027,0.0530,-1.0875,-26.6724,-172.5464,-38.7573
-0.6178,0.1096,-1.0981,-22.0337,-150.6348,-15.4419
-0.6387,0.0448,-1.0258,-12.2070,-145.7520,-2.9297
-0.6539,-0.0179,-0.9611,0.7324,-142.4561,-1.5259
-0.6901,0.0328,-0.9021,10.6812,-142.2729,0.1221
-0.7280,0.0027,-0.7614,7.5073,-148.0713,10.0098
-0.7242,-0.0431,-0.7256,18.1274,-151.9165,7.8735
-0.7220,-0.0094,-0.7322,30.3345,-154.6631,5.0049
-0.7368,0.0448,-0.7501,30.3345,-155.3345,4.9438
-0.7854,0.0630,-0.9059,21.3013,-151.4893,14.2822
-0.7999,-0.0205,-0.9531,13.2446,-143.6768,20.2026
-0.8221,-0.1360,-0.9841,6.6528,-134.9487,18.9209
-0.8591,-0.1836,-0.9802,2.1362,-125.0000,15.3809
-0.8959,-0.1417,-0.7733,11.7798,-105.7739,13.3667
-0.8870,-0.1285,-0.5828,24.0479,-105.9570,13.4888
-0.8595,-0.1191,-0.4596,25.2075,-113.2813,12.2070
-0.8517,-0.0212,-0.5336,19.2871,-118.3472,3.0518
-0.8701,0.0138,-0.5275,13.6108,-118.1641,6.8970
-0.8849,-0.0077,-0.4773,5.1880,-120.3613,10.0098
-0.9041,-0.0552,-0.3750,-2.6245,-124.5117,13.1836
-0.8966,-0.2028,-0.3535,-3.3569,-136.9629,3.4790
-0.9215,-0.1876,-0.3450,-10.6201,-143.6157,-6.3477
-0.9602,-0.1370,-0.4821,-16.2354,-148.0713,-10.3760
-0.9888,-0.1246,-0.6925,-23.6206,-141.5405,-12.7563
-1.0203,-0.0825,-0.8663,-21.4233,-104.2480,-21.0571
-1.0380,-0.0454,-0.7291,-15.3198,-86.4258,-16.5405
-1.0325,0.0001,-0.5210,-13.7329,-78.4912,-12.2070
-1.0177,0.0533,-0.3271,-11.5967,-77.2705,-7.4463
-0.9614,0.0160,-0.2257,-12.3291,-85.2661,4.6997
-0.9498,-0.0387,-0.2997,-3.8452,-82.0923,3.7842
-0.9614,-0.0780,-0.3254,-1.3428,-78.5522,0.1831
-1.0068,-0.0863,-0.5049,-7.6294,-68.1763,-4.1504
-0.9987,-0.1078,-0.6154,-12.5732,-56.3965,-4.8828
-0.9950,-0.0923,-0.6677,-15.0757,-39.1846,-9.5825
-1.0238,-0.0359,-0.5929,-27.5879,-23.3765,-11.1694
-1.0339,-0.1014,-0.3226,-38.4521,-8.1177,-3.5400
-1.0228,-0.1145,-0.2026,-26.3062,-5.9814,-5.9204
-1.0109,-0.0673,-0.1215,-15.8081,-7.9346,-6.8970
-1.0061,0.0005,-0.1421,-5.2490,-10.6812,-6.9580
-1.0240,0.1006,-0.3016,6.6528,-7.5073,3.0518
-1.0277,0.0576,-0.3608,3.9673,-3.7231,9.0942
-1.0294,0.0101,-0.4012,2.5024,2.4414,11.4136
-1.0309,-0.0305,-0.3727,-3.8452,9.2163,12.0850
-1.0104,-0.0896,-0.2296,-10.1929,15.2588,8.7280
-1.0087,-0.0972,-0.1326,-7.9346,13.4277,7.9346
-0.9860,-0.1172,-0.0691,-1.9531,8.0566,6.6528
-0.9674,-0.0852,-0.1404,8.7280,-1.8311,0.4883
-0.9768,-0.0267,-0.2139,12.0850,-2.5635,-0.7324
-0.9882,0.0093,-0.2737,8.1787,-2.0752,1.4648
-0.9983,0.0083,-0.3550,5.9204,0.9766,3.6621
-1.0200,-0.0061,-0.3684,-2.6245,13.9771,5.7983
-1.0266,-0.0155,-0.2831,-4.8218,17.0898,8.1787
-1.0212,-0.0337,-0.1692,-5.6152,16.9067,10.6812
-0.9965,-0.0557,-0.0597,-4.9438,12.6343,11.9629
-0.9545,-0.0988,-0.0608,2.5635,-2.3804,6.0425
-0.9624,-0.0646,-0.1571,6.9580,-6.5308,2.9297
-0.9735,-0.0308,-0.2689,10.0708,-6.2256,3.4180
-0.9872,-0.0061,-0.3604,8.3008,-2.3193,4.2725
-1.0071,-0.0007,-0.4003,-0.1831,10.6812,10.0098
-1.0013,-0.0250,-0.3064,-0.6104,16.3574,10.5591
-0.9934,-0.0425,-0.1978,-0.5493,15.9912,10.4370
-0.9758,-0.0768,-0.1248,1.5869,8.0566,5.8594
-0.9703,-0.0874,-0.1445,3.4790,3.9062,2.4414
-0.9690,-0.0795,-0.1989,5.2490,1.8921,-1.0986
-0.9703,-0.0433,-0.2623,5.1880,2.4414,-3.1738
-0.9825,0.0068,-0.3644,2.6855,8.3008,-1.5869
-0.9888,0.0232,-0.4038,3.1128,14.6484,-0.3662
-1.0013,0.0457,-0.4125,-0.1831,21.1792,1.6479
-1.0161,0.0494,-0.3893,-3.3569,26.3672,5.3711
-1.0288,-0.0234,-0.2806,-5.6152,32.8979,10.4980
-1.0151,-0.0582,-0.2389,-4.8828,32.5317,10.1318
-1.0024,-0.0706,-0.2578,-2.9907,31.9824,7.3242
-1.0016,-0.0496,-0.3298,-1.7700,33.2642,3.9062
-1.0171,0.0566,-0.5645,-0.8545,48.1567,3.2349
-1.0261,0.0796,-0.6897,-4.8218,60.6079,7.7515
-1.0245,0.0649,-0.8706,-9.7656,78.1860,9.9487
-1.0775,0.0884,-0.9790,-7.0801,131.8970,13.0005
-1.1478,0.1420,-0.7688,-7.6294,152.1606,20.1416
-1.1859,0.1027,-0.4666,-5.5542,157.8979,35.2783
-1.1246,-0.0336,-0.2401,-1.2817,154.2358,41.5649
-0.9580,-0.1863,-0.2721,-17.4561,133.1177,21.9727
-0.9098,-0.1334,-0.4934,-16.6016,132.6294,8.9722
-0.8727,-0.0209,-0.7303,-12.3901,141.4185,2.1362
-0.8472,0.0670,-0.9318,-11.9629,157.2266,-0.1831
-0.8794,0.1288,-1.1875,-21.8506,199.1577,2.8076
-0.9784,0.0663,-1.1963,-34.3018,222.5342,6.5308
-1.0826,-0.0408,-1.0421,-37.4756,238.6475,12.8174
-1.1091,-0.1663,-0.8097,-26.1230,245.0562,16.6016
-0.9469,-0.1768,-0.2227,18.0664,231.3843,7.6904
-0.7913,-0.1021,-0.2300,15.7471,206.6040,-6.0425
-0.7092,0.1025,-0.4768,0.3662,188.9038,-16.1743
-0.6223,0.3055,-1.1641,-30.7007,187.8052,-1.2207
-0.6289,0.2161,-1.5313,-47.5464,204.5898,9.2773
-0.6912,0.1097,-1.7573,-51.3916,239.7461,13.1226
-0.8165,0.0413,-1.7057,-45.5933,272.2168,15.7471
-0.9535,0.0322,-0.7697,6.1646,299.6216,47.0581
-0.7704,-0.0419,-0.4185,20.5078,275.3296,52.3071
-0.5447,-0.0315,-0.3419,30.5786,251.5259,42.1143
-0.4023,0.1056,-0.4307,30.6396,223.1445,34.9731
-0.1974,0.2196,-1.0138,-2.7466,205.4443,38.1470
-0.1630,0.1140,-1.0994,-13.0615,210.2661,39.7339
-0.1625,-0.0137,-1.1066,-6.2866,214.8437,34.3628
-0.1509,-0.0571,-1.0098,0.3052,217.9565,27.0996
-0.0800,-0.0028,-0.7805,-0.4883,204.5898,16.6016
-0.0455,0.0050,-0.7323,-16.4185,194.2139,11.1084
0.0128,0.0610,-0.6366,-28.0762,183.0444,9.5825
0.1815,0.1926,-0.7502,-26.6724,154.0527,17.3950
0.1990,0.1022,-0.8602,-28.1982,146.7896,22.2778
0.2527,-0.0543,-1.0055,-16.4795,145.0806,18.7988
0.2853,-0.0580,-1.1425,-11.2915,153.1372,6.7749
0.3070,0.0227,-0.8875,-11.4746,167.0532,-7.0801
0.3246,0.1317,-0.7067,-3.2959,157.7759,-8.9722
0.3295,0.1763,-0.5851,4.6997,143.7378,1.8311
0.3926,0.0580,-0.5819,18.5547,127.7466,6.9580
0.4406,0.0780,-0.8817,11.5967,122.6196,-7.1411
0.4657,0.0627,-0.8832,4.9438,126.2817,-7.3242
0.4980,0.0094,-0.9086,-1.1597,128.0518,-11.7798
0.5016,-0.0314,-0.9563,-3.7842,134.8877,-19.1040
0.4862,0.1536,-0.7460,-5.7373,145.2637,-25.3906
0.5320,0.1639,-0.5864,-5.0659,138.9160,-16.2354
0.5900,0.0776,-0.5641,7.5073,130.3711,-15.1978
0.6077,0.1523,-0.6350,11.2305,128.9062,-23.7427
0.6338,0.2030,-0.5635,4.5166,124.7559,-20.3857
0.6689,0.1752,-0.5487,-4.0894,120.9106,-19.4092
0.6809,0.1167,-0.6196,-9.5215,118.5913,-21.5454
0.6729,0.0963,-0.7230,-8.7891,126.5259,-26.4893
0.6896,0.1136,-0.6752,-9.2163,129.3945,-26.1230
0.7056,0.1748,-0.5780,-8.3008,130.0049,-24.1699
0.7301,0.2089,-0.5226,5.1880,123.4741,-15.2588
0.7783,0.1954,-0.4790,22.9492,117.9199,-9.8267
0.7910,0.1648,-0.5024,27.8320,115.5396,-10.1929
0.7933,0.1409,-0.5082,16.8457,115.1123,-12.2681
0.7997,0.1543,-0.4381,-7.0801,112.9761,-14.3433
0.8499,0.1838,-0.2490,-13.8550,99.6704,-14.1602
0.8386,0.2191,-0.2794,-9.5825,93.0176,-15.0146
0.8202,0.2222,-0.3665,-7.0801,88.7451,-9.7046
0.8145,0.1248,-0.4814,5.6152,97.4121,-9.9487
0.8097,0.1461,-0.3746,-0.4883,99.9756,-9.8877
0.8337,0.1213,-0.2578,-4.4556,96.4966,-9.7046
0.8616,0.1501,-0.1674,-7.6904,93.9331,-16.9067
0.8782,0.2120,-0.1353,-14.2212,81.2988,-17.9443
0.8806,0.1941,-0.1475,-15.2588,78.1860,-18.6768
0.8798,0.2446,-0.1036,-13.9771,70.9229,-15.5640
0.8904,0.2573,-0.0697,-15.6250,62.0728,-9.4604
0.8934,0.2860,-0.1396,0.2441,53.6499,-6.2256
0.8920,0.2799,-0.1101,0.3662,53.1006,-2.6245
0.9010,0.2463,-0.0771,4.5166,49.8047,-0.0610
0.9095,0.2151,-0.0509,8.2397,46.1426,1.7700
0.9170,0.1609,-0.0673,10.3149,33.8745,2.6855
0.9261,0.1565,-0.0435,8.9722,29.1748,0.6104
0.9447,0.1814,0.0216,3.6621,22.0337,-0.7324
0.9509,0.2224,0.0211,-7.5684,4.0283,-0.1831
0.9475,0.2458,-0.0265,-6.3477,-0.1221,0.1221
0.9445,0.2472,-0.0612,-4.3335,-3.4180,2.3804
0.9448,0.2217,-0.1251,0.0000,-5.8594,3.9062
0.9590,0.1561,-0.2362,6.7749,-3.2349,3.5400
0.9689,0.1659,-0.2258,5.0659,-1.3428,2.1973
0.9777,0.1764,-0.1538,5.8594,-1.4648,2.7466
0.9821,0.1829,-0.0762,5.9814,-6.1035,2.5024
0.9635,0.2131,-0.1113,-5.9204,-14.8926,1.8311
0.9608,0.2162,-0.1486,-6.6528,-16.9067,3.7842
0.9554,0.2102,-0.1732,-6.2256,-16.5405,3.5400
0.9486,0.2098,-0.1774,-4.3335,-17.3950,4.9438
0.9553,0.1736,-0.2815,-0.0610,-12.2070,1.3428
0.9580,0.1837,-0.2545,4.6387,-8.3008,-0.3052
0.9541,0.2062,-0.1981,6.0425,-7.8125,0.5493
0.9498,0.2181,-0.0995,0.9766,-15.0146,3.2349
0.9420,0.2457,-0.0817,3.2959,-20.1416,6.6528
0.9402,0.2615,-0.0637,3.8452,-25.2686,10.3149
0.9342,0.2253,-0.1190,-0.1221,-30.4565,12.0850
0.9272,0.1110,-0.3307,4.1504,-25.6348,8.3008
0.9305,0.1173,-0.2838,2.9907,-21.9116,6.0425
0.9371,0.1326,-0.1965,0.6714,-23.0713,3.0518
0.9347,0.1766,-0.1292,3.6621,-26.2451,1.0986
0.9187,0.2629,-0.0013,9.6436,-40.5273,5.6763
0.9044,0.3153,0.0886,11.0474,-52.1240,11.3525
0.8926,0.3292,0.1398,11.2305,-66.9556,16.9067
0.8678,0.2925,0.0699,14.8926,-81.4819,21.4844
0.8231,0.0059,-0.5151,31.0059,-85.3882,26.2451
0.8395,-0.0468,-0.6045,24.5972,-70.6177,21.0571
0.8669,-0.0378,-0.4791,15.0757,-62.5610,16.5405
0.9232,-0.0499,-0.0848,13.4888,-71.3501,3.5400
0.8990,0.0374,0.0940,18.2495,-88.0737,-3.3569
0.8525,0.2556,0.2318,28.0762,-112.9761,1.4038
0.8134,0.4451,0.2529,33.2031,-142.3950,14.8315
0.7251,0.3998,-0.0457,16.6626,-179.3823,32.5928
0.6310,0.2205,-0.5474,7.4463,-181.8848,30.5786
0.5907,0.0676,-1.0472,5.1270,-163.3301,30.0903
0.6342,-0.0214,-1.2314,4.0283,-130.6152,31.6772
0.7437,-0.0417,-0.7126,11.4746,-95.5200,27.5879
0.7614,0.0198,-0.3273,20.5688,-109.7412,31.7993
0.7454,-0.0251,-0.0790,25.7568,-138.1836,32.5317
0.7216,-0.0975,0.1068,32.6538,-170.8984,23.1934
0.5358,0.2570,0.1650,61.1572,-242.4316,15.0757
0.4050,0.4546,-0.1183,39.2456,-276.6724,21.6675
0.2937,0.3738,-0.7601,21.0571,-284.7900,27.2827
0.2566,-0.0679,-1.6630,22.8271,-212.0361,35.9497
0.2738,-0.1898,-1.5831,36.0107,-175.3540,41.7480
0.2938,-0.2300,-1.3826,37.5366,-152.0996,40.8936
0.3051,-0.2006,-1.0729,33.8745,-142.2729,36.4380
0.3127,-0.2292,-0.5348,36.4380,-173.2178,33.0200
0.2843,-0.1537,-0.4852,49.6216,-191.8945,17.3950
0.1879,0.1483,-0.4860,55.7251,-212.0972,11.5356
0.0920,0.3173,-0.6052,48.0347,-229.2480,26.6724
0.0006,-0.0907,-0.9801,40.1611,-230.5298,42.2363
-0.0306,-0.3182,-1.1132,52.0020,-221.7407,41.2598
-0.0564,-0.4641,-1.3414,66.2842,-209.8999,39.4287
-0.0726,-0.3737,-1.4901,39.0015,-162.1704,19.2261
-0.1033,-0.2906,-1.3622,23.3765,-146.9116,19.2261
-0.1208,-0.3219,-1.2047,13.6108,-136.2305,16.6626
-0.1313,-0.3091,-0.9812,7.8735,-130.1880,7.5073
-0.1871,-0.0386,-0.6039,3.1738,-153.0762,2.1362
-0.2067,-0.0399,-0.4741,4.5776,-170.2271,8.4839
-0.2434,-0.0708,-0.4666,11.8408,-194.1528,5.9814
-0.2852,-0.0833,-0.7142,13.6719,-212.5244,4.1504
-0.4059,-0.2328,-1.4231,-19.4092,-202.8198,-3.1738
-0.4396,-0.2776,-1.6091,-39.6729,-178.1006,-8.8501
-0.4658,-0.3070,-1.5352,-50.1099,-150.1465,-13.4277
-0.5076,-0.3411,-1.3206,-43.5181,-130.6152,-18.4326
-0.5968,0.0736,-0.9250,-4.0894,-124.5728,-19.5923
-0.6104,0.2299,-0.7976,-1.2817,-130.4932,-4.2725
-0.5966,0.1801,-0.6857,-12.6343,-142.2729,8.3008
-0.5800,0.0874,-0.8004,-16.3574,-161.9263,15.9912
-0.5958,-0.0120,-0.9849,-26.6113,-163.6353,16.9678
-0.6387,-0.0957,-1.2250,-39.0625,-157.2876,15.2588
-0.6763,-0.1542,-1.4124,-46.5698,-138.4888,18.0054
-0.7289,-0.2628,-1.3112,-31.1279,-88.6841,13.6108
-0.7695,-0.2449,-0.9707,-16.0522,-78.7354,8.9722
-0.7960,-0.1537,-0.6542,-7.9956,-88.6230,9.5825
-0.7825,-0.0182,-0.4740,-2.5024,-102.4780,14.9536
-0.7306,0.1224,-0.4169,9.3994,-131.0425,23.3765
-0.7339,0.0803,-0.4807,7.2632,-139.2212,20.1416
-0.7588,0.0508,-0.5856,6.5918,-147.8882,19.2871
-0.7878,-0.0219,-0.7235,6.8359,-148.7427,18.1274
-0.8473,-0.0942,-1.0470,7.8125,-134.0942,14.2822
-0.8760,-0.0822,-1.1963,-0.2441,-116.6992,13.8550
-0.8993,-0.0474,-1.1481,-0.1831,-93.5059,17.3950
-0.8995,-0.1255,-0.6195,-0.0610,-78.6743,22.7051
-0.8970,-0.0807,-0.4386,6.5918,-85.8765,20.8130
-0.8807,-0.0212,-0.3643,17.1509,-93.3838,23.3765
-0.8586,0.0006,-0.3174,20.0806,-99.3042,21.6064
-0.8594,0.0317,-0.3370,15.4419,-111.7554,13.9771
-0.8590,-0.0073,-0.4390,15.1367,-115.8447,11.2305
-0.8627,-0.0735,-0.5707,15.5640,-112.5488,7.0190
-0.8806,-0.1215,-0.6719,16.8457,-105.1636,1.8921
-0.9059,-0.0737,-0.7307,9.9487,-85.5103,-3.6621
-0.9175,-0.0709,-0.7029,8.5449,-74.3408,-5.4932
-0.9252,-0.0720,-0.6218,5.8594,-65.0635,-6.9580
-0.9216,-0.0664,-0.4666,2.1362,-55.2979,-10.0098
-0.9187,-0.0668,-0.4036,2.6245,-53.0396,-9.8877
-0.9180,-0.0687,-0.3734,2.7466,-51.3916,-11.6577
-0.9292,-0.0310,-0.3652,-0.1831,-49.8657,-13.4888
-0.9468,-0.0051,-0.4203,-8.9722,-48.7061,-9.7046
-0.9657,0.0021,-0.4658,-10.8643,-44.0063,-3.0518
-0.9441,-0.0616,-0.5435,-15.5640,-42.9688,0.1221
-1.0083,-0.0406,-0.3953,-18.2495,-27.1606,-2.0752
-0.9841,-0.0862,-0.3107,-23.4985,-27.6489,-0.8545
-0.9709,-0.1002,-0.2861,-26.7944,-27.2827,-5.7373
-0.9821,-0.0421,-0.2992,-18.1274,-27.7100,-7.8735
-0.9921,0.0178,-0.3909,-2.0752,-23.1323,-3.6011
-1.0090,0.0402,-0.4674,0.3052,-19.1650,-1.3428
-1.0178,0.0426,-0.5305,3.7842,-11.9019,2.7466
-1.0065,0.0049,-0.4329,-0.1831,3.2959,8.6060
-1.0029,-0.0337,-0.3580,-3.9673,4.0894,8.9722
-0.9973,-0.0588,-0.3196,-7.5684,5.1270,7.7515
-0.9902,-0.0928,-0.2858,-12.3291,4.1504,5.9814
-0.9910,-0.0653,-0.2582,-9.5215,1.5259,2.2583
-0.9800,-0.0619,-0.2549,-3.9673,0.0000,2.2583
-0.9728,-0.0531,-0.2686,-2.3193,-0.4883,-0.2441
-0.9731,-0.0337,-0.3118,-1.6479,-1.8921,-0.7935
-0.9750,0.0151,-0.4222,-0.4883,4.8218,0.7935
-0.9828,0.0299,-0.4080,-4.1504,8.7891,3.4790
-0.9867,0.0143,-0.3572,-9.8877,10.8643,6.2866
-0.9778,-0.0172,-0.3142,-11.9019,11.0474,7.4463
-0.9681,-0.0509,-0.2061,-6.2256,7.3242,8.1787
-0.9510,-0.0665,-0.1993,-4.9438,3.0518,5.7373
-0.9493,-0.0402,-0.2368,-0.8545,-0.3662,3.9062
-0.9418,-0.0488,-0.3005,0.2441,-1.4038,2.0142
-0.9420,-0.0549,-0.3486,-2.1362,-1.0986,-0.0610
-0.9489,-0.0436,-0.4011,-1.9531,2.6855,-0.7324
-0.9532,-0.0323,-0.4053,-2.3804,7.1411,-1.0986
-0.9594,0.0411,-0.3828,-4.5776,12.8784,1.4038
-0.9595,0.0369,-0.3274,-5.2490,15.1367,4.9438
-0.9559,-0.0002,-0.2466,-5.3101,13.1836,5.8594
-0.9510,-0.0508,-0.2174,-5.4321,8.9722,5.6152
-0.9506,-0.1116,-0.3575,-1.8311,7.9346,-3.4180
-0.9562,-0.0708,-0.4677,-2.9907,12.9395,-7.1411
-0.9644,0.0004,-0.5826,-5.9814,22.3999,-8.9722
-0.9747,0.0593,-0.6796,-11.8408,34.7290,-7.1411
-0.9961,0.0546,-0.8116,-18.7988,66.5894,-2.3193
-1.0214,0.0515,-0.7742,-13.8550,84.2285,1.4648
-1.0431,0.0273,-0.6261,-7.0801,95.7642,7.3853
-1.0165,-0.0560,-0.2878,-7.3242,98.5107,9.8267
-0.9779,-0.0891,-0.2954,-17.1509,92.8345,4.8828
-0.9553,-0.0858,-0.4459,-21.3623,90.2710,-2.6245
-0.9332,-0.0570,-0.6670,-22.0337,97.2290,-7.8735
-0.8849,-0.0681,-0.9923,-27.2217,137.2681,-18.2495
-0.8696,-0.0720,-1.0654,-32.3486,160.6445,-26.1230
-0.8842,-0.0486,-1.0916,-29.2969,183.8379,-31.1890
-0.9202,-0.0145,-1.0483,-28.7476,205.9937,-30.7617
-1.0427,0.0536,-0.7365,-38.3301,226.2573,-14.5874
-1.0049,-0.0420,-0.5203,-35.5835,220.9473,-4.4556
-0.9320,-0.0691,-0.3890,-32.8979,209.0454,-8.9722
-0.7980,-0.1433,-0.3549,-34.5459,189.2700,-11.9629
-0.7462,-0.0198,-0.4696,-39.0625,178.0396,-20.9351
-0.6895,0.0731,-0.6812,-44.7998,170.5933,-16.6016
-0.6443,0.0793,-0.9612,-48.6450,174.0112,-18.4326
-0.6677,0.1672,-1.3336,-61.3403,212.7075,-8.2397
-0.7085,0.1530,-1.3285,-57.8613,229.0649,2.7466
-0.7534,0.1157,-1.1893,-42.9688,237.9761,15.9302
-0.7980,0.0554,-0.9304,-23.1323,234.7412,28.9917
-0.6539,-0.0322,-0.5128,-5.8594,201.1719,46.3867
-0.5067,-0.0444,-0.4624,1.3428,179.1992,44.5557
-0.3912,0.0454,-0.5333,4.6387,154.7852,32.4097
-0.2627,0.2145,-1.0288,-13.4888,132.4463,29.8462
-0.2357,0.2085,-1.1698,-16.9678,139.0381,30.8838
-0.2244,0.1409,-1.2733,-13.6719,147.2778,32.9590
-0.2330,0.0547,-1.3610,-6.7139,160.8887,31.9214
-0.2595,0.0123,-0.9982,9.0942,171.0205,30.5786
-0.2157,0.0154,-0.8618,12.5732,163.1470,28.8086
-0.1610,0.0935,-0.7456,8.6060,151.5503,27.6489
-0.0868,0.1757,-0.6802,5.8594,133.3618,32.5928
0.0568,0.0573,-0.8745,-0.7324,102.2949,32.3486
0.0912,-0.0220,-1.1061,-8.3618,102.7832,24.4141
0.0940,-0.0298,-1.2819,-11.4746,114.1357,16.3574
0.0879,-0.0276,-1.3898,-10.8032,128.6621,12.0850
0.0569,0.0023,-1.1978,1.7090,160.9497,4.0894
0.0538,0.0746,-0.8745,6.8970,157.5928,2.3193
0.1030,0.1259,-0.7289,7.3242,143.6768,14.1602
0.2124,0.1353,-0.7573,4.1504,123.4131,21.2402
0.2649,0.0283,-0.8636,-0.9766,118.7134,21.9116
0.3020,-0.0089,-0.8857,-5.1880,121.2769,14.2822
0.3308,-0.0065,-0.8750,-9.3994,119.0796,9.5215
0.3690,-0.0781,-1.0192,-1.7700,125.4272,-6.5308
0.3695,-0.0378,-1.0260,9.2163,133.0566,-15.1367
0.3727,0.0375,-0.9203,11.7798,138.6108,-16.8457
0.3875,0.0996,-0.7985,10.6201,136.2915,-16.7847
0.4274,0.1362,-0.7668,-1.2207,123.4741,-9.8877
0.4626,0.0752,-0.7758,-0.7324,119.4458,-7.0801
0.4872,0.0367,-0.8418,-5.6152,117.3096,-9.7656
0.4956,0.0520,-0.9053,-8.2397,120.3613,-13.1226
0.5474,0.0568,-0.9083,-24.1089,129.0894,-18.6768
0.5463,0.1322,-0.8491,-21.2402,134.5215,-18.6768
0.5559,0.1333,-0.7891,-16.6016,134.5215,-10.9253
0.6202,0.0725,-0.7073,-7.7515,133.2397,-9.7656
0.6327,0.1244,-0.6641,0.1831,130.4932,-9.5215
0.6552,0.1578,-0.6180,1.9531,126.4648,-5.6763
0.6738,0.1647,-0.5721,4.2114,123.2910,-3.2349
0.6959,0.0881,-0.5166,-16.7236,114.2578,0.6104
0.7166,0.0549,-0.5066,-10.4980,111.6943,-1.5869
0.7422,0.0978,-0.4530,-5.9204,107.4219,-1.5869
0.7531,0.0986,-0.4788,-7.6904,101.5625,-0.8545
0.7694,-0.0159,-0.5586,-7.0801,104.4922,-8.7891
0.7764,-0.0453,-0.5681,-1.8311,106.3843,-16.4185
0.7877,-0.0315,-0.5466,-0.1831,112.7319,-25.0854
0.7902,0.0527,-0.4154,-11.9019,115.1123,-32.4097
0.8307,0.1738,-0.2627,-23.8647,99.3652,-26.5503
0.8363,0.1908,-0.2512,-19.1040,94.7266,-24.5972
0.8239,0.2349,-0.2559,-17.5171,87.2192,-18.2495
0.8435,0.2278,-0.2300,-3.6621,80.2002,-11.3525
0.8490,0.2211,-0.2029,2.1973,72.8149,-7.3242
0.8549,0.1576,-0.2736,3.3569,68.4814,-9.5825
0.8566,0.1359,-0.3136,0.7935,69.8853,-14.7095
0.8635,0.1893,-0.2892,-1.7700,69.6411,-16.2354
0.8751,0.2351,-0.2371,3.4790,68.9087,-13.4888
0.8879,0.2520,-0.1681,8.4839,65.9790,-10.1929
0.8918,0.2412,-0.1550,15.6250,59.3262,-8.4839
0.8833,0.2369,-0.1785,12.0239,52.8564,-1.7700
0.9019,0.2124,-0.1125,-3.6621,46.5088,-1.0376
0.9160,0.1873,-0.0468,-17.1509,38.3911,-0.9766
0.9237,0.1655,-0.0031,-23.0103,29.2969,-1.2207
0.9221,0.1724,-0.1447,-11.1084,15.8081,-2.6245
0.9343,0.1868,-0.1686,-6.0425,15.6250,-0.9766
0.9518,0.1912,-0.1516,-3.6011,14.5264,-1.7090
0.9486,0.2057,-0.3480,6.6528,17.4561,-5.1270
0.9590,0.2158,-0.3580,8.3008,24.7803,-6.1035
0.9661,0.2444,-0.2816,8.4229,29.2969,-5.6152
0.9602,0.2644,-0.2186,13.3057,27.1606,-2.0752
0.9553,0.2587,-0.1204,15.9912,21.4844,7.6294
0.9684,0.2144,-0.0621,5.3101,13.9771,9.4604
0.9717,0.1820,-0.0900,-8.4839,7.2632,6.2866
0.9631,0.1611,-0.1444,-9.3994,3.5400,6.1035
0.9578,0.1793,-0.2494,-8.9111,3.7842,0.6104
0.9482,0.1929,-0.2770,-3.5400,8.7891,0.8545
0.9518,0.1843,-0.2095,2.3193,10.9253,1.2817
0.9563,0.1996,-0.1385,6.7139,8.4839,1.7090
0.9506,0.2389,-0.0289,10.9253,-1.4038,4.5776
0.9480,0.2430,-0.0397,10.0708,-7.8735,6.2256
0.9423,0.1884,-0.1311,5.3101,-11.7798,7.6294
0.9429,0.1107,-0.2623,-6.7139,-6.5308,1.4648
0.9502,0.1157,-0.2134,-10.4370,-4.0894,-1.5259
0.9536,0.1436,-0.1198,-10.2539,-5.7983,-3.1128
0.9531,0.1714,-0.0709,-8.3618,-11.7798,-2.9297
0.9418,0.2100,-0.0668,0.9766,-20.7520,-0.1221
0.9344,0.2206,-0.0496,1.0986,-26.0010,2.0142
0.9199,0.1957,-0.1134,-0.4272,-31.8604,3.7842
0.9059,0.1719,-0.1873,2.1362,-31.4941,3.2959
0.9053,0.1425,-0.1104,-1.8311,-35.9497,3.1128
0.8995,0.1605,-0.0682,0.6714,-41.9312,3.1128
0.8893,0.2162,0.0518,5.7983,-50.0488,6.5918
0.8820,0.2596,0.2448,11.4746,-67.9321,14.8926
0.8668,0.2440,0.5508,27.0386,-129.7607,27.9541
0.8029,0.2643,0.4712,12.8784,-160.7056,23.0103
0.7069,0.3328,0.2939,-0.6714,-186.8896,21.9116
0.5916,0.2744,-0.2336,-6.9580,-211.4868,32.9590
0.5590,0.2727,-0.3416,7.9956,-212.2192,39.9780
0.5396,0.2808,-0.2773,21.5454,-216.2476,51.8799
0.5154,0.2512,-0.0955,46.5088,-231.9336,69.1528
0.4946,0.0198,-0.0898,58.1055,-281.9824,79.5288
0.4275,-0.0984,-0.1205,52.0020,-297.3633,68.9697
0.3505,-0.2229,-0.1538,63.7207,-319.0918,55.9082
0.2604,-0.2390,-0.2892,70.3735,-335.1440,33.2642
0.0543,0.1342,-0.9589,12.2070,-328.1250,3.8452
-0.0182,0.2260,-1.4009,-19.1040,-311.6455,10.8643
-0.0322,0.0394,-1.9532,-29.9683,-279.2358,29.1748
0.0286,-0.2079,-2.1702,-21.4233,-223.7549,38.6963
0.1387,-0.2916,-1.2206,19.7754,-167.6636,34.4849
0.1600,-0.1909,-0.7952,45.2881,-183.8989,34.9121
0.1698,-0.1423,-0.5641,57.9224,-203.7354,32.1655
0.0773,-0.0996,-0.4673,45.0439,-250.0610,2.2583
-0.0121,0.1621,-0.8556,13.3057,-261.6577,-14.9536
-0.1381,0.3990,-1.3269,-14.6484,-251.5869,-4.2725
-0.2157,0.2584,-1.6563,-32.4707,-228.7598,21.1792
-0.1761,-0.3365,-1.9440,-19.2871,-153.0762,33.6914
-0.1660,-0.4055,-1.6569,-11.9019,-121.5210,21.4844
-0.1841,-0.3428,-1.2544,-5.5542,-111.9995,10.6201
-0.2225,-0.2472,-0.8844,-1.0376,-120.1782,4.2725
-0.2052,-0.1630,-0.5199,8.1177,-159.1797,-8.7891
-0.2327,0.0103,-0.4067,-0.6714,-181.7017,-23.9258
-0.2819,0.2664,-0.4517,-1.6479,-208.1299,-24.4751
-0.4419,0.3916,-1.1862,-12.2070,-219.7876,-7.2021
-0.5212,0.1592,-1.4849,-21.4844,-202.4536,10.0708
-0.5349,-0.1064,-1.6644,-28.0762,-175.9033,13.0005
-0.5465,-0.1956,-1.6720,-28.5034,-143.4326,5.7373
-0.6001,-0.1965,-1.0940,-14.1602,-108.4595,-5.8594
-0.6235,-0.2046,-0.7551,0.1221,-115.2344,-13.5498
-0.5985,-0.2180,-0.5326,12.3291,-130.6152,-22.0337
-0.5616,-0.1094,-0.4132,18.0664,-144.1040,-35.8887
-0.6095,0.3778,-0.5800,34.1187,-178.2837,-33.9966
-0.6760,0.4275,-0.7732,27.4658,-178.2837,-16.9067
-0.7468,0.2594,-0.8274,10.9863,-177.6733,1.0376
-0.7825,0.0143,-0.8704,5.1880,-179.8096,12.8784
-0.8120,-0.2733,-1.2583,12.2681,-162.0483,12.0850
-0.8446,-0.2479,-1.3760,16.3574,-133.9111,5.4321
-0.8690,-0.1907,-1.2538,26.1230,-105.7739,5.1880
-0.8783,-0.0891,-0.6776,37.5366,-89.4775,5.3101
-0.8379,-0.0421,-0.5054,30.0903,-95.7642,5.7373
-0.8190,0.0132,-0.4227,21.4233,-105.0415,3.6011
-0.7885,0.0582,-0.4318,15.5029,-112.3657,3.2959
-0.7944,0.0411,-0.5735,5.9204,-118.1030,1.7700
-0.8087,-0.0057,-0.6760,4.8218,-116.6992,3.8452
-0.8376,-0.0486,-0.8208,3.0518,-111.5112,6.6528
-0.8640,-0.0939,-0.9257,-0.4883,-99.4263,9.7046
-0.8827,-0.1858,-0.7618,6.0425,-72.4487,6.5918
-0.9039,-0.1908,-0.5868,9.0942,-66.6504,3.4180
-0.9023,-0.1836,-0.4395,12.3291,-67.3218,0.6714
-0.8702,-0.1565,-0.3685,12.2681,-71.2891,-4.5166
-0.8785,0.0730,-0.4594,5.9204,-74.0356,-13.6108
-0.8933,0.1362,-0.4978,-0.7324,-72.6318,-7.3853
-0.9017,0.1019,-0.5323,-8.1177,-71.6553,-0.1221
-0.9243,-0.0576,-0.6266,-15.0757,-61.2793,5.3711
-0.9301,-0.1178,-0.6462,-15.6250,-53.4668,3.5400
-0.9446,-0.1351,-0.6592,-17.2729,-44.7388,-1.7700
-0.9705,-0.1002,-0.5996,-14.5264,-35.3394,-3.3569
-0.9509,-0.1108,-0.2758,-7.9956,-32.8369,0.1831
-0.9147,-0.1171,-0.2299,-9.7656,-38.2080,-5.0659
-0.9292,-0.0483,-0.2654,-3.8452,-43.2129,-9.7046
-0.9406,0.0027,-0.3213,-7.2632,-49.3164,-5.3711
-0.9508,0.0223,-0.4358,-10.6812,-49.2554,-6.4087
-0.9707,0.0488,-0.5789,-13.6108,-43.3960,-2.8076
-0.9858,0.0310,-0.6577,-17.3950,-33.0811,0.0610
-0.9918,-0.0122,-0.5819,-23.6816,-12.3291,0.7324
-1.0146,-0.0280,-0.4222,-26.9775,-6.8970,1.2207
-1.0211,-0.0671,-0.2632,-25.5737,-10.2539,3.4790
-1.0132,-0.0869,-0.1525,-17.6392,-15.0146,3.2959
-0.9550,-0.0737,-0.1240,-2.0752,-33.1421,-0.7324
-0.9529,-0.0291,-0.2355,0.1221,-38.0859,-2.0142
-0.9543,-0.0059,-0.3835,0.6714,-37.2925,-2.1362
-0.9646,0.0314,-0.5397,-4.7607,-30.5176,-1.5869
-0.9879,0.0135,-0.6824,-8.7891,-4.5166,4.3335
-0.9940,-0.0067,-0.5941,-5.2490,8.7891,5.4932
-1.0000,-0.0229,-0.4220,-5.0049,15.0146,6.4697
-0.9879,-0.1035,-0.1045,-7.5684,6.4697,4.8828
-0.9623,-0.1140,-0.0817,-1.0986,-2.1362,1.2207
-0.9456,-0.0767,-0.1373,4.2114,-9.0942,-1.9531
-0.9425,-0.0209,-0.2379,7.2632,-12.6343,-2.2583
-0.9496,0.0358,-0.4417,8.7891,-7.8125,2.5024
-0.9543,0.0298,-0.5239,0.5493,-1.5259,5.0659
-0.9641,-0.0007,-0.5466,-7.3853,7.8735,6.4697
-0.9707,-0.0424,-0.4490,-8.3008,15.4419,6.7139
-0.9677,-0.0569,-0.1371,-3.0518,12.4512,4.9438
-0.9537,-0.0842,-0.0778,0.7324,3.8452,3.7842
-0.9399,-0.0923,-0.1198,3.9062,-3.5400,-0.4883
-0.9388,-0.0627,-0.2136,5.1880,-7.9956,-3.3569
-0.9360,-0.0034,-0.3909,5.5542,-6.2256,-2.7466
-0.9364,0.0096,-0.4373,3.3569,-2.0142,-1.3428
-0.9397,0.0125,-0.4626,-0.4272,3.5400,0.0000
-0.9645,0.0022,-0.3971,-4.0894,14.8926,2.2583
-0.9730,-0.0240,-0.2880,-5.0049,15.2588,3.6011
-0.9667,-0.0643,-0.1973,-3.2349,12.3291,2.6855
-0.9613,-0.0885,-0.1653,-0.6714,7.2632,-0.7935
-0.9700,-0.0380,-0.3475,4.5166,3.7231,-7.7515
-0.9819,0.0042,-0.4761,4.5166,8.7891,-8.4839
-0.9966,0.0348,-0.5833,2.1973,18.3716,-7.7515
-1.0028,0.0391,-0.6606,0.1221,30.8228,-5.3101
-0.9773,-0.0096,-0.7720,-4.1504,62.1948,-5.6152
-0.9539,-0.0208,-0.8236,-9.7046,80.8105,-10.6812
-0.9481,0.0396,-0.8693,-13.7329,100.3418,-16.9678
-0.9965,0.1371,-0.8347,-10.1318,119.3848,-17.1509
-1.1149,0.1720,-0.6616,-17.4561,138.6108,4.3945
-1.1143,0.0319,-0.5837,-33.0200,143.4937,14.4043
-1.0770,-0.1394,-0.6033,-43.9453,147.6440,14.0991
-1.0017,-0.2253,-0.8805,-41.2598,169.9829,-2.1973
-0.9907,-0.1523,-1.0059,-35.3394,191.7725,-8.1787
-1.0015,-0.0656,-1.0355,-26.4282,214.2334,-7.8735
-1.0177,0.0245,-0.9817,-10.6812,230.8350,-2.5635
-1.0139,-0.0371,-0.7517,-11.4136,242.7368,13.3667
-0.9977,-0.0789,-0.5895,-18.4937,239.0137,10.3760
-0.9445,-0.0858,-0.4575,-32.5928,229.3701,9.8877
-0.8689,-0.1011,-0.4967,-47.8516,213.8672,4.5166
-0.7642,0.0083,-0.8683,-56.7017,211.4258,0.4272
-0.7322,0.0115,-0.9978,-46.7529,216.3086,1.1597
-0.7063,0.0253,-1.1621,-39.9780,223.3276,3.4790
-0.7003,0.0769,-1.3115,-17.7002,252.4414,18.8599
-0.7028,0.0521,-1.2709,-5.0049,265.1978,22.8271
-0.7140,0.0514,-1.1375,4.6387,274.9023,23.8647
-0.7020,0.0688,-0.9843,3.8452,276.2451,25.7568
-0.5752,0.0970,-0.6353,5.3711,251.5259,39.4897
-0.4310,0.0065,-0.6200,-2.2583,232.2388,39.0625
-0.3226,0.0181,-0.6580,1.8921,213.6841,32.6538
-0.2521,0.1040,-0.7631,-2.0752,199.3408,30.3345
-0.1112,-0.0061,-1.1395,-11.4746,200.3174,25.2686
-0.0864,-0.0660,-1.2888,-9.2773,212.7075,17.7612
-0.0778,-0.1053,-1.3848,-13.5498,229.7974,8.6060
-0.1088,-0.0695,-1.3271,-20.0195,247.8027,-3.0518
-0.1461,0.1139,-0.6929,-24.2310,245.8496,21.9116
0.0382,0.0638,-0.4733,-27.0996,222.2900,33.1421
0.1738,0.0748,-0.5159,-23.7427,200.6226,28.3203
0.3101,0.0739,-0.7656,-22.0337,172.3022,29.5410
0.3491,-0.0740,-0.9618,-8.6060,172.7295,22.1558
0.3683,-0.1521,-1.0819,10.5591,182.6782,9.0332
0.3813,-0.0403,-0.9960,21.1182,196.4111,-5.8594
0.3928,0.0937,-0.7297,16.8457,194.7632,-9.1553
0.4131,0.0682,-0.6409,18.4937,189.3921,-10.8643
0.4257,0.1097,-0.5531,20.8130,181.0913,-4.7607
0.4645,0.0991,-0.5045,1.7090,169.4946,0.2441
0.5646,0.0494,-0.6122,-22.9492,153.9307,-3.8452
0.5992,0.0815,-0.5836,-16.4795,150.2075,-1.5869
0.6416,0.0293,-0.5759,-5.2490,147.0947,-1.0376
0.6707,0.0031,-0.5758,-2.1362,147.0337,-8.6670
0.6940,0.0341,-0.5551,-8.9111,141.1743,-13.4277
0.7115,0.0186,-0.5519,-8.8501,140.0757,-16.2354
0.7075,0.0490,-0.5319,0.9155,138.8550,-18.4937
0.7378,0.0944,-0.4962,19.7144,136.4136,-15.7471
0.7527,0.1461,-0.3466,18.3716,132.5073,-15.0146
0.7861,0.1349,-0.3062,5.1880,121.6431,-13.1836
0.8036,0.1160,-0.3687,-2.6855,117.0654,-16.0522
0.8391,0.0803,-0.2719,-28.9307,106.8726,-18.7988
0.8497,0.0702,-0.3182,-28.6865,100.3418,-23.0103
0.8593,0.0702,-0.3679,-19.2261,98.7549,-23.1323
0.8732,0.0583,-0.3850,-12.8784,100.7690,-24.8413
0.8573,0.1641,-0.2852,-7.8125,105.0415,-26.9775
0.8765,0.1763,-0.2028,-11.9019,98.8770,-23.7427
0.8816,0.1858,-0.2240,-6.5308,93.6279,-23.4375
0.8768,0.2231,-0.2299,-2.5024,90.1489,-19.8364
0.8917,0.3079,-0.1842,0.7324,86.1206,-14.6484
0.9041,0.3004,-0.0774,-3.1128,80.8105,-5.2490
0.9202,0.2242,-0.0476,-5.7983,72.6929,-3.4180
0.9302,0.1514,-0.1371,-4.0283,62.2559,-9.1553
0.9286,0.1470,-0.1818,-6.5308,61.2183,-12.9395
0.9362,0.1326,-0.2227,-4.2725,61.5234,-14.0991
0.9429,0.1416,-0.2054,-6.5918,64.2090,-15.6860
0.9449,0.2100,-0.0477,-3.9673,64.2090,-17.3340
0.9340,0.2246,0.0063,0.3052,53.8330,-13.2446
0.9630,0.2054,-0.0751,0.4883,50.0488,-12.6343
0.9609,0.2118,-0.1605,5.6152,52.4292,-15.5640
0.9479,0.2692,0.0170,-12.1460,48.3398,-11.2305
0.9435,0.2660,-0.0082,-4.8218,43.4570,-11.2915
0.9352,0.2673,-0.0167,-5.4321,40.5884,-8.5449
0.9341,0.2697,0.0210,-2.1973,36.5601,-4.4556
0.9308,0.2338,0.0337,2.1362,23.8647,5.0659
0.9308,0.1989,0.0253,-4.4556,23.6206,3.7842
0.9308,0.2085,0.1229,-5.1270,21.2402,4.3945
0.9285,0.1785,0.1400,-11.1084,5.4932,2.8076
0.9265,0.1642,0.0219,-8.9722,3.5400,1.6479
0.9315,0.1578,0.0145,-3.4790,4.9438,1.5259
0.9354,0.1752,0.0902,-3.7842,2.1362,0.8545
0.9351,0.1992,0.1021,-3.1128,-7.5073,0.6714
0.9323,0.1976,0.0377,0.2441,-10.2539,1.0376
0.9392,0.1823,-0.0624,1.7090,-9.5215,-0.8545
0.9468,0.1840,-0.1060,3.2959,-4.6997,-1.9531
0.9640,0.2321,0.0049,6.5308,-4.1504,-1.4648
0.9635,0.2390,0.0327,4.0283,-8.1177,0.7324
0.9609,0.2218,-0.0032,2.8687,-11.1694,2.3193
0.9589,0.1995,-0.0806,-1.8311,-11.4136,2.2583
0.9713,0.1714,-0.0775,-2.8076,-6.2256,2.3804
0.9719,0.1887,-0.0161,-2.5024,-7.3242,1.2817
0.9702,0.1914,0.0281,-3.1738,-10.0708,0.7935
0.9547,0.2173,0.0529,-7.9956,-17.1509,0.1221
0.9464,0.2286,0.0955,-10.3149,-21.7285,1.4648
0.9371,0.2245,0.1240,-9.2773,-28.8086,3.3569
0.9318,0.1951,0.0802,-8.3008,-35.4004,5.4932
0.9301,0.1511,0.0491,-6.1646,-41.8091,4.6387
0.9277,0.1461,0.0952,-6.4087,-48.4009,3.0518
0.9189,0.1700,0.2028,-7.5684,-58.8379,2.2583
0.9080,0.2092,0.3340,-11.2915,-78.8574,4.0283
0.8558,0.3381,0.6250,13.4888,-132.9346,21.5454
0.8068,0.3682,0.8098,39.8560,-173.5840,34.7900
0.7329,0.3622,0.8750,60.5469,-218.6890,47.6685
0.6415,0.3240,0.8436,68.7866,-260.4980,55.6641
0.4016,0.2937,0.3754,62.3169,-330.5054,63.2935
0.3370,0.1545,-0.0518,45.9595,-346.2524,63.4155
0.2842,0.1030,-0.4283,38.0859,-339.5386,51.1475
0.2548,-0.0820,-0.6210,38.6353,-329.5898,55.9082
0.2543,-0.2682,-0.6716,55.9082,-325.1343,41.6260
0.2178,-0.2953,-0.6232,73.8525,-323.4863,26.8555
0.1643,-0.2736,-0.5092,77.6367,-329.2847,19.3481
-0.0450,0.0382,-0.3511,80.9937,-360.5957,4.2114
-0.1942,0.3450,-0.3981,77.3315,-388.2446,21.6064
-0.2986,0.3074,-0.7579,70.8008,-407.1045,44.1895
-0.3556,-0.0706,-1.4325,57.5562,-399.4751,55.9692
-0.2190,-0.3568,-2.5543,33.0811,-281.8604,47.8516
-0.1162,-0.2357,-2.3002,-0.9766,-211.3037,42.6025
-0.0978,-0.1793,-1.7686,-19.7754,-173.8892,39.7339
-0.1121,-0.1703,-1.2678,-13.0615,-166.9312,40.2832
-0.1549,-0.1541,-0.6873,3.9673,-191.5283,30.0293
-0.1974,-0.1180,-0.6051,18.5547,-212.4023,25.3906
-0.2168,-0.0455,-0.7664,21.0571,-229.6143,18.2495
-0.2513,-0.1478,-1.2504,0.3052,-226.0742,13.3057
-0.2808,-0.1812,-1.4979,-6.1646,-209.8999,15.2588
-0.2946,-0.2219,-1.6317,-15.8081,-182.3730,20.9351
-0.3124,-0.2496,-1.5602,-26.1230,-153.3203,17.5171
-0.4438,-0.1774,-0.8571,-25.9399,-138.8550,15.7471
-0.4904,-0.1403,-0.5250,-18.4326,-158.5083,14.9536
-0.5131,-0.0894,-0.2941,-15.1978,-181.7627,10.8032
-0.5265,-0.0199,-0.1853,-2.4414,-210.7544,2.5635
-0.6206,0.0759,-0.4706,9.9487,-257.0801,-14.8315
-0.6719,0.0259,-0.8624,19.8364,-264.6484,-19.3481
-0.7273,-0.0293,-1.2496,17.7612,-254.8218,-27.2827
-0.8119,-0.0176,-1.4414,10.9863,-233.1543,-27.3438
-0.8694,-0.2352,-1.4055,-17.0288,-186.6455,-7.8735
-0.8730,-0.3196,-1.3527,-24.1089,-162.0483,-16.2354
-0.9176,-0.1864,-1.1942,-17.1509,-141.3574,-22.0947
-0.9226,0.1522,-0.7346,20.8130,-126.5259,-5.2490
-0.9121,0.2035,-0.4896,12.8174,-131.5308,6.6528
-0.9004,0.1638,-0.4028,0.5493,-143.7988,17.8223
-0.9053,0.0828,-0.4991,-2.5635,-157.0435,20.4468
-0.8989,-0.2018,-0.6121,0.4272,-157.4707,12.0850
-0.9115,-0.2146,-0.6235,-2.8687,-158.2642,0.7324
-0.9340,-0.2135,-0.6962,-4.2114,-156.8604,-8.3008
-0.9567,-0.1630,-0.7958,4.6997,-151.1230,-16.6016
-0.9813,-0.0403,-0.8361,12.2070,-123.7183,-13.0615
-0.9861,0.0394,-0.8019,15.3198,-109.5581,-8.4229
-0.9813,0.0813,-0.7006,20.0806,-95.5200,3.6011
-0.9563,0.0164,-0.5665,23.5596,-88.5010,10.0098
-0.9532,-0.0627,-0.4186,21.0571,-82.9468,13.1226
-0.9288,-0.1274,-0.3964,18.2495,-80.8105,9.6436
-0.9321,-0.1018,-0.3722,16.6016,-79.4067,4.2114
-0.9169,-0.1260,-0.3916,10.4980,-78.4302,2.3804
-0.9310,-0.1252,-0.4103,9.6436,-75.1953,-2.5635
-0.9467,-0.1084,-0.4097,11.0474,-72.2046,-4.1504
-0.9562,-0.0728,-0.4247,16.2964,-67.5049,-5.0049
-0.9535,-0.0316,-0.3013,9.6436,-61.8286,0.0000
-0.9515,-0.0404,-0.3309,5.0659,-61.4624,-1.5869
-0.9738,-0.0200,-0.3596,6.5308,-57.3730,0.9766
-0.9832,-0.0568,-0.3627,10.4370,-53.2837,4.9438
-1.0251,-0.0271,-0.3661,3.2959,-42.9688,2.1362
-1.0380,-0.0090,-0.3835,2.0752,-38.3911,6.3477
-1.0328,-0.0316,-0.3923,0.6104,-30.7617,8.1177
-1.0321,-0.0623,-0.3625,-1.7090,-25.0244,7.7515
-1.0177,-0.1012,-0.2258,-8.3618,-19.7754,7.2021
-1.0010,-0.1343,-0.1964,-8.3618,-19.9585,2.1973
-1.0149,-0.0812,-0.2174,-3.0518,-19.5313,-2.9907
-1.0389,-0.0189,-0.3054,4.6997,-14.0991,0.3662
-1.0439,-0.0214,-0.3339,6.1646,-9.5215,1.7090
-1.0402,-0.0406,-0.3309,2.5024,-4.7607,3.9062
-1.0271,-0.0688,-0.3350,-0.5493,-0.7935,4.5776
-1.0061,-0.0780,-0.2723,-0.4883,8.7280,2.5635
-1.0131,-0.0374,-0.2589,-1.2207,9.5215,-0.1221
-1.0259,-0.0125,-0.2799,-2.8076,11.6577,2.0752
-1.0298,-0.0442,-0.2498,-1.3428,14.7705,3.9062
-1.0007,-0.1221,-0.0808,-4.4556,9.3994,2.1973
-0.9844,-0.1100,-0.0808,-3.0518,4.4556,0.1221
-0.9729,-0.0980,-0.1289,0.6104,1.2817,-0.5493
-0.9718,-0.0844,-0.1890,2.6855,-0.0610,-2.5024
-0.9785,-0.0775,-0.3315,3.2959,4.6387,-3.9673
-0.9858,-0.0365,-0.3632,2.4414,10.2539,-3.5400
-0.9929,-0.0090,-0.3545,-0.9155,15.4419,-1.2817
-1.0072,-0.0148,-0.2401,-7.5073,22.3389,4.4556
-1.0055,-0.0616,-0.1450,-8.4229,20.8130,5.4932
-0.9940,-0.0952,-0.1003,-8.4839,16.6016,3.7231
-0.9792,-0.1112,-0.1149,-4.5166,12.4512,1.2817
-0.9824,-0.0392,-0.2994,1.1597,11.1084,-4.4556
-0.9980,0.0162,-0.4399,-3.4790,17.0288,-3.4790
-1.0067,0.0358,-0.5621,-6.8970,27.5879,-0.4272
-1.0186,-0.0093,-0.7294,-20.0195,59.1431,0.9155
-1.0398,0.0011,-0.8113,-24.5972,78.3081,0.0610
-1.0944,0.0475,-0.8188,-29.1748,99.3652,3.2349
-1.1335,0.0406,-0.7141,-33.6304,116.1499,12.6953
-1.1389,-0.0511,-0.4054,-31.5552,135.3149,21.8506
-1.0933,-0.0825,-0.2998,-34.3628,136.6577,24.5361
-1.0338,-0.1420,-0.3032,-36.1938,135.8643,20.4468
-0.9807,-0.1445,-0.4392,-37.9639,137.0850,9.9487
-0.9358,-0.0303,-0.9711,-28.1982,164.1846,-11.9019
-0.9498,0.0763,-1.2141,-30.8228,189.0259,-15.6250
-1.0054,0.1110,-1.4165,-36.5601,221.1914,-11.2305
-1.1082,0.0782,-1.4601,-35.2783,257.8125,-3.8452
-1.2786,-0.0073,-0.9292,-32.1655,301.3916,24.4751
-1.2572,-0.0973,-0.5066,-31.9214,302.4902,35.4004
-1.1710,-0.1007,-0.1084,-39.1235,286.7432,41.7480
-0.8245,-0.1516,0.0135,-46.8750,218.4448,31.7993
-0.7003,-0.0597,-0.3604,-42.0532,192.5049,18.3105
-0.6202,0.0282,-0.8577,-39.3066,186.5845,11.2915
-0.5829,0.0598,-1.3502,-38.7573,203.0029,6.4087
-0.6643,0.0928,-1.8660,-16.4795,280.3345,0.0610
-0.7924,0.1417,-1.6851,4.3335,320.4956,7.4463
-0.9020,0.1754,-1.3048,16.2354,333.6792,16.9678
-0.9468,0.2683,-1.0042,34.6069,332.4585,35.9497
-0.6521,0.0231,-0.5076,34.4238,303.6499,65.7959
-0.4446,-0.1201,-0.4369,36.8042,274.6582,49.2554
-0.2826,-0.1237,-0.5314,35.0342,248.9624,28.2593
-0.1691,-0.0315,-0.7487,21.7285,229.6753,10.2539
-0.1056,0.1578,-1.3491,-25.2686,236.8164,2.7466
-0.1302,0.1014,-1.4574,-28.1982,254.5166,9.2773
-0.1370,-0.0426,-1.3851,-25.5737,270.3247,12.7563
-0.0875,-0.1547,-1.0513,-12.7563,282.6538,-3.5400
-0.0635,0.0287,-0.7935,-16.7236,277.5879,-2.6855
0.0421,0.0529,-0.5895,-32.4097,258.9111,9.5215
0.1638,0.0331,-0.5792,-16.8457,238.1592,12.3291
0.3468,-0.0483,-0.7618,-1.1597,214.7217,7.3242
0.3884,0.0126,-0.7870,9.8267,214.2944,-2.3804
0.4170,0.0491,-0.7489,15.7471,213.3789,-2.9907
0.4404,-0.0697,-0.8894,42.9688,217.1021,-16.7236
0.4338,-0.0037,-0.8210,50.3540,223.0835,-20.1416
0.4526,-0.0450,-0.6917,6.8970,221.6797,-23.6206
0.4762,-0.0492,-0.5522,-20.6909,218.3838,-34.7290
0.6116,0.1018,-0.1561,-37.9639,189.5752,-27.3438
0.6683,0.0974,-0.1123,-31.6162,170.1660,-25.6348
0.7006,0.0839,-0.1733,-14.6484,154.2969,-25.4517
0.7255,0.0490,-0.3340,-11.0474,145.3247,-27.5879
0.7133,0.0836,-0.5715,-20.6909,152.4048,-34.9731
0.7275,0.0769,-0.4954,-37.5366,159.6069,-35.9497
0.7488,0.1016,-0.2289,-48.4009,158.0200,-34.1187
0.7958,0.0831,-0.0360,-47.5464,138.0615,-31.0669
0.8218,0.0582,-0.2024,-22.2168,113.6475,-44.3115
0.8199,0.2101,-0.2562,-20.3857,112.4878,-44.0674
0.8297,0.3185,-0.1305,-33.4473,107.6050,-37.0483
0.8781,0.3386,0.0270,-23.7427,81.7871,-16.3574
0.8827,0.3105,-0.0232,-13.1226,71.3501,-13.3057
0.8888,0.2773,-0.1305,-8.9111,66.8945,-12.1460
0.8804,0.2765,-0.2247,0.4883,68.7866,-12.6343
0.8793,0.2924,-0.1295,10.5591,70.1294,-3.0518
0.8787,0.2664,-0.0680,7.9956,65.9790,-2.3193
0.8884,0.2434,0.0354,-1.3428,59.4482,-1.8921
0.9152,0.1921,0.1178,-14.5874,46.5088,-3.0518
0.9078,0.2010,-0.0840,-16.2964,31.7993,-12.6953
0.9023,0.2441,-0.0786,-7.7515,28.9307,-8.1177
0.9036,0.2500,-0.0280,-0.4272,23.7427,-3.9062
0.9019,0.2521,-0.0084,-2.8076,17.2729,-3.1128
0.9061,0.2400,-0.1458,-3.4790,10.3760,-0.0610
0.9146,0.2291,-0.1654,1.3428,11.8408,-0.6714
0.9199,0.2322,-0.1487,3.9062,13.0005,-1.8311
0.9288,0.2623,-0.0336,5.6763,5.8594,1.7700
0.9335,0.2158,-0.1091,-2.3193,2.2583,0.4883
0.9307,0.1979,-0.1838,-0.3052,4.3335,-1.8921
0.9333,0.2200,-0.1555,3.9062,5.9204,-1.5259
0.9463,0.2272,-0.1320,0.6104,4.6387,-2.8687
0.9438,0.2408,-0.1539,0.4883,4.6997,-2.8687
0.9457,0.2408,-0.1539,5.8594,5.3711,-0.7324
0.9497,0.2355,-0.1279,8.1177,4.9438,0.6104
0.9529,0.2180,-0.1222,2.9297,1.3428,1.0986
0.9473,0.2169,-0.1545,-0.9766,2.5024,-0.3662
0.9443,0.2385,-0.1064,1.3428,3.6621,0.6104
0.9385,0.2286,-0.0267,0.5493,-4.8218,3.5400
0.9337,0.2111,-0.0520,2.0142,-8.3618,4.2114
0.9323,0.1990,-0.0823,3.1128,-10.8032,4.2114
0.9368,0.1736,-0.1278,3.7842,-12.0239,3.6011
0.9556,0.1709,-0.2031,0.6104,-6.6528,-2.1362
0.9644,0.1927,-0.1713,2.2583,-3.7842,-4.4556
0.9655,0.2238,-0.1235,3.6011,-3.8452,-4.9438
0.9584,0.2524,-0.0807,1.3428,-5.9814,-3.7231
0.9586,0.2321,-0.0251,-1.8311,-15.6250,-1.6479
0.9572,0.2284,-0.0842,2.2583,-19.2871,-1.0986
0.9523,0.2101,-0.1727,2.2583,-18.1274,-1.1597
0.9500,0.2150,-0.1631,6.3477,-15.5029,-1.2207
0.9423,0.2157,0.0129,3.6621,-22.8882,-1.0376
0.9260,0.2109,0.0706,1.6479,-31.0059,-0.6714
0.9124,0.2067,0.1542,0.0000,-43.0908,-0.1221
0.8678,0.2430,0.4126,21.6675,-84.3506,5.7373
0.8254,0.2928,0.5269,44.7998,-112.9150,12.5732
0.7614,0.3540,0.6351,56.7627,-145.9961,22.0947
0.6903,0.3641,0.6421,61.2793,-185.3027,34.6680
0.5446,0.2177,0.2837,43.0298,-241.5161,38.1470
0.4904,0.1526,0.1058,55.9082,-256.4087,35.9497
0.4332,0.1294,0.0598,67.1997,-269.6533,33.5693
0.3633,0.1296,0.0874,75.2563,-288.6963,34.4849
0.1897,0.1642,0.0488,79.4678,-335.1440,35.4004
0.0768,0.2039,-0.0011,77.6367,-362.0605,41.0156
-0.0336,0.2169,-0.1313,87.2192,-386.1084,48.0347
-0.1484,0.1827,-0.3337,93.5059,-399.9634,51.6968
-0.2909,-0.0961,-1.0062,111.9385,-408.4473,66.3452
-0.2411,-0.3271,-1.6219,110.3516,-387.6343,59.6313
-0.1685,-0.3903,-2.1346,98.3276,-338.2568,50.3540
-0.0554,-0.3401,-2.0310,26.6724,-219.9097,53.3447
-0.0070,-0.4049,-1.5807,5.1270,-197.2046,56.0303
0.0084,-0.3824,-1.2474,-6.8970,-192.9932,43.9453
-0.0310,-0.1661,-1.0548,-11.6577,-193.3594,36.2549
-0.1000,-0.0039,-0.7764,-3.3569,-210.0830,42.4194
-0.1475,-0.0374,-0.7113,8.4839,-222.2290,40.6494
-0.1862,-0.1039,-0.8209,20.3247,-233.7646,37.9028
-0.1923,-0.1729,-1.1726,29.4800,-236.1450,35.3394
-0.1636,-0.3501,-1.9069,12.8174,-187.5610,22.2168
-0.2201,-0.2699,-1.8392,-5.9204,-147.0947,17.1509
-0.2955,-0.2085,-1.3854,-11.5356,-124.1455,19.7144
-0.4209,-0.0564,-0.6526,0.6104,-150.0244,29.4189
-0.4352,0.0343,-0.4897,5.1270,-172.7295,37.4756
-0.4283,-0.0193,-0.3896,3.2349,-194.7632,31.4941
-0.4658,-0.0342,-0.3478,5.7983,-216.4307,16.9067
-0.5853,-0.0287,-0.7452,34.0576,-250.2441,-0.3052
-0.6324,-0.0658,-1.1344,32.0435,-246.4600,1.1597
-0.6533,-0.1630,-1.5131,13.4888,-230.3467,2.3804
-0.6948,-0.1681,-1.7296,-6.2256,-201.4771,-2.9907
-0.7760,-0.1624,-1.4369,-18.4937,-138.6719,4.1504
-0.8218,-0.1249,-1.1266,-9.7656,-126.0986,3.1738
-0.8440,-0.0012,-0.8497,3.8452,-125.3662,8.8501
-0.7762,-0.0464,-0.5144,-4.5776,-142.1509,17.2729
-0.7556,-0.0675,-0.5068,-5.6763,-152.2827,7.9346
-0.7661,-0.0541,-0.5836,-5.0049,-161.1938,4.3945
-0.7742,-0.0752,-0.7152,0.7324,-163.6963,-0.9766
-0.8392,-0.0822,-0.8958,7.1411,-152.2217,-5.3711
-0.8976,-0.0723,-0.9425,8.3618,-145.0806,0.5493
-0.9276,-0.1014,-0.9484,10.4370,-132.4463,4.8828
-0.9347,-0.1260,-0.8475,12.9395,-118.1641,5.0049
-0.9413,-0.0542,-0.6095,11.9629,-109.6191,3.0518
-0.9559,0.0023,-0.5060,14.8315,-110.6567,9.6436
-0.9326,-0.0359,-0.4210,13.6108,-114.0137,13.0005
-0.9095,-0.0701,-0.4160,7.2632,-119.6289,9.2163
-0.8828,-0.0444,-0.6028,-2.0142,-120.1782,7.2632
-0.9061,-0.0925,-0.7009,-4.8218,-114.5630,3.7842
-0.9534,-0.1023,-0.7295,-4.6997,-103.7598,0.7324
-0.9980,-0.0966,-0.6354,-1.8311,-84.1064,1.1597
